"Time (s)","Acceleration x (m/s^2)","Acceleration y (m/s^2)","Acceleration z (m/s^2)"
3.863599400E-2,-3.071786165E-1,-9.814760208E0,2.967100143E-1
4.112563000E-2,-4.028915167E-1,-9.860223770E0,4.486542661E-3
4.859458800E-2,-4.339981973E-1,-9.908080101E0,-1.226321608E-2
5.108422400E-2,-4.630111754E-1,-9.862616539E0,1.166501082E-2
5.357615100E-2,-3.981058598E-1,-9.841081619E0,-6.490531564E-2
5.606578600E-2,-4.196412563E-1,-9.802796364E0,-8.165507019E-2
5.855542100E-2,-4.486542344E-1,-9.812367439E0,-1.175474152E-1
6.104505700E-2,-4.869394004E-1,-9.812367439E0,-1.393819153E-1
6.353469200E-2,-4.869394004E-1,-9.790832520E0,-1.585244983E-1
6.602438000E-2,-4.749752879E-1,-9.781260490E0,-1.872383654E-1
6.851401500E-2,-4.462614357E-1,-9.764211655E0,-2.327020019E-1
7.100370300E-2,-4.366901219E-1,-9.742676735E0,-2.590230405E-1
7.349333800E-2,-3.933202326E-1,-9.749855042E0,-2.422732860E-1
7.598302600E-2,-3.813561201E-1,-9.781260490E0,-2.231307179E-1
7.847266100E-2,-3.789632916E-1,-9.745069504E0,-2.087737769E-1
8.096229600E-2,-3.693920076E-1,-9.778867722E0,-1.489532143E-1
8.345198400E-2,-3.598206937E-1,-9.805189133E0,-1.298106313E-1
8.594161900E-2,-3.502494097E-1,-9.764211655E0,-1.175474152E-1
8.838917100E-2,-3.311068416E-1,-9.793225288E0,-9.122636169E-2
9.087880700E-2,-3.406781256E-1,-9.819545746E0,-1.175474152E-1
9.336844200E-2,-3.430709541E-1,-9.860223770E0,-9.361918271E-2
9.585813000E-2,-3.430709541E-1,-9.865009308E0,-9.840483218E-2
9.834776500E-2,-3.909274042E-1,-9.872187614E0,-6.011966988E-2
1.008374010E-1,-3.981058598E-1,-9.886545181E0,-2.991028305E-4
1.033270880E-1,-3.717848063E-1,-9.884152412E0,4.277170449E-2
1.058167240E-1,-3.933202326E-1,-9.874580383E0,9.302098304E-2
1.083063590E-1,-3.502494097E-1,-9.874580383E0,1.193420291E-1
1.107960460E-1,-3.598206937E-1,-9.874580383E0,1.531406492E-1
1.132856820E-1,-3.287140131E-1,-9.879366875E0,2.009970993E-1
1.157753690E-1,-3.215355575E-1,-9.891330719E0,2.105683982E-1
1.181850050E-1,-3.646063507E-1,-9.886545181E0,1.866401732E-1
1.206746400E-1,-3.981058598E-1,-9.908080101E0,2.057827413E-1
1.231642760E-1,-3.861417472E-1,-9.881759644E0,2.153540403E-1
1.256539630E-1,-3.813561201E-1,-9.824331284E0,2.057827413E-1
1.281435990E-1,-3.454637825E-1,-9.874580383E0,2.201396823E-1
1.306332340E-1,-3.215355575E-1,-9.865009308E0,2.249253243E-1
1.331229210E-1,-3.215355575E-1,-9.836296082E0,2.321037948E-1
1.356125570E-1,-3.478565812E-1,-9.824331284E0,2.105683982E-1
1.381021920E-1,-3.765704632E-1,-9.807581902E0,1.483550072E-1
1.405918800E-1,-3.933202326E-1,-9.819545746E0,8.105687052E-2
1.430815150E-1,-4.438686073E-1,-9.814760208E0,-5.084747914E-3
1.455712030E-1,-4.339981973E-1,-9.807581902E0,-5.054837838E-2
1.480207860E-1,-4.414757788E-1,-9.788438797E0,-8.883354068E-2
1.505104210E-1,-4.339981973E-1,-9.781260490E0,-1.465603858E-1
1.530000570E-1,-4.773681164E-1,-9.776474953E0,-1.728814393E-1
1.554897440E-1,-5.850451589E-1,-9.795618057E0,-3.523431420E-1
1.579793800E-1,-5.228317380E-1,-9.783653259E0,-3.116651475E-1
1.604690150E-1,-4.148556292E-1,-9.764211655E0,-1.968096644E-1
1.629587030E-1,-4.510470629E-1,-9.718748093E0,-1.657029688E-1
1.654483380E-1,-4.677968323E-1,-9.733105659E0,-7.208377868E-2
1.679379740E-1,-4.148556292E-1,-9.742676735E0,-4.576273263E-2
1.704276610E-1,-3.885345757E-1,-9.754640579E0,-6.011966988E-2
1.729172960E-1,-3.382852972E-1,-9.795618057E0,-4.097708687E-2
1.754069840E-1,-2.952145040E-1,-9.829116821E0,-6.729813665E-2
1.778143800E-1,-2.377867550E-1,-9.783653259E0,-9.601201117E-2
1.803040150E-1,-1.633101404E-1,-9.829116821E0,-1.127617657E-1
1.827936510E-1,-1.322034448E-1,-9.807581902E0,-1.103689447E-1
1.852833380E-1,-4.606183618E-2,-9.774082184E0,-1.441675574E-1
1.877729740E-1,-2.691925503E-2,-9.807581902E0,-1.199402362E-1
1.902626090E-1,4.187439568E-3,-9.833903313E0,-1.199402362E-1
1.927522960E-1,4.486542568E-2,-9.819545746E0,-1.226321608E-1
1.952419320E-1,4.007977992E-2,-9.824331284E0,-1.103689447E-1
1.977315670E-1,6.580262445E-3,-9.841081619E0,-1.776670814E-1
2.002212550E-1,-2.452643216E-2,-9.869794846E0,-2.159522474E-1
2.027108900E-1,-1.058823988E-1,-9.908080101E0,-2.542374134E-1
2.052005780E-1,-2.114657015E-1,-9.958329201E0,-2.590230405E-1
2.076278170E-1,-3.191427290E-1,-9.991828918E0,-2.997010350E-1
2.101174530E-1,-3.669991791E-1,-1.003250694E1,-3.020938635E-1
2.126070880E-1,-4.725824594E-1,-1.008544827E1,-2.973082066E-1
2.150967760E-1,-5.754738450E-1,-1.011176968E1,-2.398804724E-1
2.175864110E-1,-5.539384484E-1,-1.012373352E1,-1.322034448E-1
2.200760460E-1,-6.209374666E-1,-1.018116093E1,-1.103689447E-1
2.225657340E-1,-6.352944374E-1,-1.015962601E1,-6.729813665E-2
2.250553690E-1,-6.281159520E-1,-1.013091183E1,-2.901297435E-2
2.275450050E-1,-6.113662124E-1,-1.013330460E1,5.952146277E-2
2.300346920E-1,-6.185446382E-1,-1.011894798E1,1.507478207E-1
2.325243280E-1,-5.946164131E-1,-1.011894798E1,1.866401732E-1
2.350140150E-1,-5.204389095E-1,-1.013091183E1,1.842473447E-1
2.374470360E-1,-4.486542344E-1,-1.008544827E1,2.225325108E-1
2.399366710E-1,-4.124628007E-1,-1.004955578E1,2.129612118E-1
2.424263070E-1,-3.741776347E-1,-1.001097202E1,2.512463629E-1
2.449159940E-1,-3.885345757E-1,-1.005194855E1,1.651047617E-1
2.474056300E-1,-4.076771438E-1,-9.994221687E0,1.049850956E-1
2.498952650E-1,-4.292125702E-1,-9.984650612E0,6.669992954E-2
2.523849530E-1,-4.438686073E-1,-9.996614456E0,3.320041299E-2
2.548745880E-1,-4.941178858E-1,-9.958329201E0,5.712864175E-2
2.573642240E-1,-5.132604837E-1,-9.943972588E0,6.909275055E-2
2.598539110E-1,-5.419743061E-1,-9.872187614E0,4.277170449E-2
2.623435460E-1,-5.659025311E-1,-9.860223770E0,5.234299600E-2
2.648332340E-1,-7.169494629E-1,-9.853045464E0,1.265204996E-1
2.672617760E-1,-1.059422255E0,-9.939187050E0,1.097707376E-1
2.697514110E-1,-8.916255236E-1,-9.867402077E0,8.823533356E-2
2.722410460E-1,-8.509475589E-1,-9.819545746E0,8.344969153E-2
2.747307340E-1,-9.011968374E-1,-9.788438797E0,7.387840003E-2
2.772203690E-1,-8.437690735E-1,-9.766604424E0,8.584251255E-2
2.797100050E-1,-7.935197949E-1,-9.754640579E0,2.967100143E-1
2.821996920E-1,-7.313064337E-1,-9.761818886E0,2.536391914E-1
2.846893280E-1,-6.927221417E-1,-9.749855042E0,3.134597540E-1
2.871789630E-1,-6.400800347E-1,-9.757033348E0,2.799602449E-1
2.896686510E-1,-6.592226624E-1,-9.766604424E0,1.890329868E-1
2.921582860E-1,-7.767700553E-1,-9.809974670E0,1.456630826E-1
2.946479740E-1,-1.013958573E0,-9.893723488E0,2.362912335E-2
2.970803690E-1,-8.198408484E-1,-9.802796364E0,6.669992954E-2
2.995700050E-1,-7.360920906E-1,-9.733105659E0,1.097707376E-1
3.020596400E-1,-7.480561733E-1,-9.747462273E0,1.603191197E-1
3.045493280E-1,-6.975077987E-1,-9.747462273E0,1.408774406E-1
3.070389630E-1,-1.150349498E0,-9.807581902E0,4.037888348E-2
3.095285990E-1,-1.294217944E0,-9.809974670E0,-2.518445849E-1
3.120182860E-1,-9.924231768E-1,-9.709177017E0,1.579262912E-1
3.145079210E-1,-8.174480200E-1,-9.716355324E0,1.217348501E-1
3.169975570E-1,-6.544370055E-1,-9.656535149E0,3.254238665E-1
3.194872440E-1,-5.084748268E-1,-9.634999275E0,3.158525825E-1
3.219768800E-1,-3.789632916E-1,-9.611071587E0,4.286143482E-1
3.244665670E-1,-2.617149651E-1,-9.596714020E0,3.756731451E-1
3.268937030E-1,-1.250249892E-1,-9.603892326E0,3.756731451E-1
3.293833380E-1,-1.495514158E-2,-9.587142944E0,2.895315289E-1
3.318729740E-1,-5.982056609E-4,-9.563215256E0,2.656033039E-1
3.343626610E-1,-5.982056609E-4,-9.539286613E0,1.289133132E-1
3.368522960E-1,2.811566554E-2,-9.524930000E0,8.344969153E-2
3.393419320E-1,1.136590727E-2,-9.534501076E0,6.879365072E-3
3.418316190E-1,-1.256231871E-2,-9.541679382E0,-6.729813665E-2
3.443212550E-1,-7.716853172E-2,-9.481559753E0,-1.992024779E-1
3.468108900E-1,-1.417747438E-1,-9.524930000E0,-3.188436031E-1
3.493005780E-1,-1.345962733E-1,-9.560821533E0,-4.674977362E-1
3.517902130E-1,-1.827518344E-1,-9.623035431E0,-5.632106066E-1
3.542799010E-1,-2.593221664E-1,-9.630213737E0,-6.592226624E-1
3.567096920E-1,-2.473580390E-1,-9.654142380E0,-6.687939167E-1
3.591993280E-1,-2.353939265E-1,-9.725926399E0,-6.541379094E-1
3.616889630E-1,-2.210369855E-1,-9.766604424E0,-6.349952817E-1
3.641786510E-1,-2.258226424E-1,-9.793225288E0,-6.230311990E-1
3.666682860E-1,-2.018944174E-1,-9.845867157E0,-5.512465239E-1
3.691579210E-1,-2.066800594E-1,-9.879366875E0,-4.651049078E-1
3.716476090E-1,-2.617149651E-1,-9.905687332E0,-3.403790295E-1
3.741372440E-1,-3.311068416E-1,-9.975079536E0,-2.303091735E-1
3.766268800E-1,-3.885345757E-1,-9.994221687E0,-1.345962733E-1
3.791165670E-1,-5.228317380E-1,-9.999007225E0,-3.379862010E-2
3.816062030E-1,-5.730810165E-1,-1.002772141E1,7.627122104E-2
3.840958900E-1,-6.855437160E-1,-1.004237747E1,1.408774406E-1
3.865275050E-1,-7.480561733E-1,-1.003011417E1,1.627119333E-1
3.890171400E-1,-8.270193338E-1,-1.004237747E1,1.579262912E-1
3.915067760E-1,-9.035896659E-1,-1.005912685E1,1.456630826E-1
3.939964630E-1,-9.732806087E-1,-1.003998470E1,1.097707376E-1
3.964860990E-1,-9.900303483E-1,-1.006869888E1,7.387840003E-2
3.989757340E-1,-9.972088337E-1,-1.008305550E1,5.234299600E-2
4.014654210E-1,-9.490532875E-1,-1.002293587E1,6.430710852E-2
4.039550570E-1,-9.107680917E-1,-1.004237747E1,3.080759197E-2
4.064446920E-1,-8.365905881E-1,-1.003011417E1,-2.991028305E-4
4.089343800E-1,-7.791628838E-1,-1.000139999E1,-3.140579537E-2
4.114240150E-1,-6.855437160E-1,-1.003489971E1,-9.870393202E-3
4.139137030E-1,-6.472585201E-1,-1.003250694E1,-3.140579537E-2
4.163444320E-1,-6.233302951E-1,-1.005194855E1,-6.011966988E-2
4.188340670E-1,-6.041877270E-1,-1.004477024E1,-6.490531564E-2
4.213237030E-1,-5.946164131E-1,-1.006152058E1,-2.183450572E-2
4.238133900E-1,-5.778666735E-1,-1.006152058E1,3.559323773E-2
4.263030260E-1,-5.970092416E-1,-1.007348442E1,6.430710852E-2
4.287926610E-1,-6.352944374E-1,-1.012134075E1,1.289133132E-1
4.312823490E-1,-6.711867452E-1,-1.013569736E1,1.842473447E-1
4.337719840E-1,-7.073782086E-1,-1.015962601E1,2.033899277E-1
4.362616190E-1,-7.695915699E-1,-1.020030403E1,1.336989701E-1
4.387513070E-1,-8.437690735E-1,-1.020748234E1,1.483550072E-1
4.412409420E-1,-8.988040090E-1,-1.026969528E1,1.579262912E-1
4.437306300E-1,-9.442676306E-1,-1.031306553E1,1.049850956E-1
4.461580780E-1,-9.490532875E-1,-1.032024384E1,9.541380405E-2
4.486477130E-1,-9.011968374E-1,-1.028405285E1,9.541380405E-2
4.511373490E-1,-9.035896659E-1,-1.026490974E1,9.062815458E-2
4.536270360E-1,-8.940183520E-1,-1.028405285E1,4.516452923E-2
4.561166710E-1,-8.676972985E-1,-1.026012421E1,2.123630047E-2
4.586063070E-1,-8.270193338E-1,-1.026490974E1,3.080759197E-2
4.610959940E-1,-7.839485407E-1,-1.024816036E1,-5.084747914E-3
4.635856300E-1,-7.241279483E-1,-1.018834019E1,1.645065658E-2
4.660752650E-1,-6.687939167E-1,-1.012373352E1,1.884347759E-2
4.685649530E-1,-5.946164131E-1,-1.007826996E1,1.645065658E-2
4.710545880E-1,-5.132604837E-1,-1.011416245E1,6.879365072E-3
4.735442760E-1,-4.316053987E-1,-1.006152058E1,-9.870393202E-3
4.759747960E-1,-3.622135222E-1,-1.000379372E1,-5.294119939E-2
4.784644320E-1,-3.191427290E-1,-9.989436150E0,-2.422732860E-2
4.809540670E-1,-2.641077936E-1,-9.943972588E0,-7.477570791E-3
4.834437550E-1,-2.593221664E-1,-9.941579819E0,-9.840483218E-2
4.859333900E-1,-2.353939265E-1,-9.958329201E0,-9.361918271E-2
4.884230260E-1,-2.641077936E-1,-9.955936432E0,-8.644071966E-2
4.909127130E-1,-2.904288471E-1,-9.943972588E0,-4.576273263E-2
4.934023490E-1,-2.976073027E-1,-9.915258408E0,1.166501082E-2
4.958919840E-1,-3.071786165E-1,-9.943972588E0,2.362912335E-2
4.983816710E-1,-3.023929596E-1,-9.941579819E0,6.669992954E-2
5.008713070E-1,-2.138585299E-1,-9.910472870E0,1.025922745E-1
5.033609940E-1,-2.186441720E-1,-9.946365356E0,1.145563871E-1
5.057702650E-1,-1.779661775E-1,-9.922437668E0,1.097707376E-1
5.082599010E-1,-1.226321608E-1,-9.932008743E0,1.241276711E-1
5.107495360E-1,-1.683948934E-1,-9.934401512E0,6.909275055E-2
5.132392240E-1,-2.665006220E-1,-9.960722923E0,2.093719784E-3
5.157288590E-1,-3.334996700E-1,-9.979865074E0,-4.576273263E-2
5.182184940E-1,-4.366901219E-1,-9.965508461E0,-5.294119939E-2
5.207081820E-1,-4.148556292E-1,-9.963115692E0,-3.858426586E-2
5.231978170E-1,-3.981058598E-1,-9.982257843E0,-2.422732860E-2
5.256874530E-1,-4.100699723E-1,-9.979865074E0,1.166501082E-2
5.281771400E-1,-4.390829504E-1,-9.946365356E0,-2.691925503E-3
5.306667760E-1,-4.677968323E-1,-9.960722923E0,-3.140579537E-2
5.331564630E-1,-4.797609448E-1,-9.929615974E0,-9.870393202E-3
5.356088070E-1,-4.821537733E-1,-9.915258408E0,-5.772684515E-2
5.380984420E-1,-5.036891699E-1,-9.900901794E0,-2.901297435E-2
5.405880780E-1,-5.060819983E-1,-9.879366875E0,-5.084747914E-3
5.430777650E-1,-5.108676553E-1,-9.874580383E0,-3.619144112E-2
5.455674010E-1,-5.539384484E-1,-9.848259926E0,-7.208377868E-2
5.480570360E-1,-5.778666735E-1,-9.831509590E0,-4.576273263E-2
5.505467240E-1,-5.587241054E-1,-9.886545181E0,-1.079761237E-1
5.530363590E-1,-5.467599630E-1,-9.898509026E0,-1.513460279E-1
5.555259940E-1,-5.826523304E-1,-9.898509026E0,-2.183450609E-1
5.580156820E-1,-6.376872063E-1,-9.905687332E0,-3.068794906E-1
5.605053170E-1,-6.951149702E-1,-9.915258408E0,-3.092723191E-1
5.629950050E-1,-7.360920906E-1,-9.948758125E0,-2.901297510E-1
5.654234420E-1,-7.360920906E-1,-9.958329201E0,-2.709871531E-1
5.679120880E-1,-7.408776879E-1,-9.970293999E0,-2.542374134E-1
5.704007340E-1,-7.193422914E-1,-9.955936432E0,-1.537388563E-1
5.728893800E-1,-6.831508875E-1,-9.955936432E0,-1.079761237E-1
5.753780260E-1,-6.831508875E-1,-9.967901230E0,-7.477570791E-3
5.778667240E-1,-6.664010882E-1,-9.965508461E0,4.277170449E-2
5.803553690E-1,-6.687939167E-1,-9.932008743E0,1.818545163E-1
5.828440150E-1,-5.898307562E-1,-9.905687332E0,2.536391914E-1
5.853327130E-1,-5.228317380E-1,-9.893723488E0,2.991028428E-1
5.878213070E-1,-5.012963414E-1,-9.841081619E0,3.302095234E-1
5.903099530E-1,-4.582255483E-1,-9.836296082E0,3.493520916E-1
5.927986510E-1,-4.339981973E-1,-9.819545746E0,3.302095234E-1
5.952409420E-1,-3.981058598E-1,-9.848259926E0,3.110669553E-1
5.977295880E-1,-4.172484577E-1,-9.838688850E0,2.608176768E-1
6.002182340E-1,-4.124628007E-1,-9.831509590E0,2.440679073E-1
6.027068800E-1,-3.861417472E-1,-9.838688850E0,2.751746178E-1
6.051955260E-1,-3.406781256E-1,-9.855438232E0,2.464607358E-1
6.076842240E-1,-3.119642437E-1,-9.807581902E0,2.129612118E-1
6.101728690E-1,-3.239283562E-1,-9.805189133E0,2.249253243E-1
6.126615150E-1,-3.239283562E-1,-9.821938515E0,1.746760458E-1
6.151501610E-1,-3.502494097E-1,-9.848259926E0,1.001994461E-1
6.176388070E-1,-5.180460811E-1,-9.848259926E0,-2.662015148E-2
6.201274530E-1,-5.922235847E-1,-9.865009308E0,-8.165507019E-2
6.226161510E-1,-7.480561733E-1,-9.939187050E0,-1.393819153E-1
6.250580780E-1,-8.389834166E-1,-9.970293999E0,-1.465603858E-1
6.275467240E-1,-8.629116416E-1,-1.000379372E1,-1.322034448E-1
6.300353690E-1,-9.011968374E-1,-9.979865074E0,-9.601201117E-2
6.325240150E-1,-8.700901270E-1,-9.963115692E0,-2.422732860E-2
6.350126610E-1,-8.868398666E-1,-9.953543663E0,2.093719784E-3
6.375013590E-1,-8.796614408E-1,-9.953543663E0,2.602194622E-2
6.399900050E-1,-8.509475589E-1,-9.948758125E0,6.909275055E-2
6.424786510E-1,-8.389834166E-1,-9.960722923E0,9.062815458E-2
6.449672960E-1,-8.365905881E-1,-9.920044899E0,1.313061416E-1
6.474559420E-1,-8.006982803E-1,-9.893723488E0,1.289133132E-1
6.499445880E-1,-7.217351198E-1,-9.893723488E0,1.531406492E-1
6.524332860E-1,-6.855437160E-1,-9.951150894E0,1.627119333E-1
6.548761510E-1,-6.735795736E-1,-9.946365356E0,1.193420291E-1
6.573647960E-1,-6.257231236E-1,-9.951150894E0,7.627122104E-2
6.598534420E-1,-6.161518097E-1,-9.960722923E0,2.093719784E-3
6.623420880E-1,-6.544370055E-1,-9.999007225E0,-1.944168471E-2
6.648307340E-1,-6.616154313E-1,-9.989436150E0,-4.097708687E-2
6.673194320E-1,-7.097710371E-1,-9.999007225E0,-9.122636169E-2
6.698080780E-1,-7.456633449E-1,-1.002054310E1,-6.729813665E-2
6.722967240E-1,-7.384848595E-1,-9.972686768E0,-7.208377868E-2
6.747853690E-1,-7.217351198E-1,-9.955936432E0,-4.097708687E-2
6.772740150E-1,-7.145566344E-1,-9.932008743E0,1.645065658E-2
6.797626610E-1,-7.022934556E-1,-9.857831001E0,7.866404206E-2
6.822513590E-1,-6.520441771E-1,-9.867402077E0,7.866404206E-2
6.846903170E-1,-6.496513486E-1,-9.805189133E0,7.627122104E-2
6.871789630E-1,-6.329016089E-1,-9.754640579E0,9.541380405E-2
6.896676090E-1,-6.113662124E-1,-9.735498428E0,9.780662507E-2
6.921562550E-1,-5.754738450E-1,-9.682855606E0,8.823533356E-2
6.946449010E-1,-5.228317380E-1,-9.620642662E0,8.105687052E-2
6.971335990E-1,-4.965106845E-1,-9.601499557E0,4.755735025E-2
6.996222440E-1,-4.773681164E-1,-9.608678818E0,2.602194622E-2
7.021108900E-1,-4.316053987E-1,-9.591928482E0,-3.619144112E-2
7.045995360E-1,-4.654040039E-1,-9.601499557E0,-1.103689447E-1
7.070881820E-1,-4.534398913E-1,-9.618249893E0,-1.298106313E-1
7.095768280E-1,-4.316053987E-1,-9.613464355E0,-1.609173268E-1
7.120655260E-1,-4.100699723E-1,-9.615857124E0,-2.422732860E-1
7.145055260E-1,-4.316053987E-1,-9.611071587E0,-2.183450609E-1
7.169942240E-1,-4.630111754E-1,-9.637392044E0,-1.944168359E-1
7.194828170E-1,-4.630111754E-1,-9.701998711E0,-2.279163599E-1
7.219714630E-1,-5.036891699E-1,-9.723533630E0,-2.111666054E-1
7.244601090E-1,-5.156532526E-1,-9.735498428E0,-1.992024779E-1
7.269488070E-1,-5.347958803E-1,-9.788438797E0,-1.489532143E-1
7.294374530E-1,-5.563312769E-1,-9.798010826E0,-9.601201117E-2
7.319260990E-1,-4.797609448E-1,-9.831509590E0,-2.183450572E-2
7.344147440E-1,-4.749752879E-1,-9.819545746E0,2.123630047E-2
7.369033900E-1,-4.725824594E-1,-9.824331284E0,7.148557901E-2
7.393920360E-1,-4.196412563E-1,-9.845867157E0,1.651047617E-1
7.418807340E-1,-3.598206937E-1,-9.848259926E0,2.488535494E-1
7.443222960E-1,-3.526422381E-1,-9.805189133E0,2.727817893E-1
7.468109420E-1,-3.071786165E-1,-9.829116821E0,2.823530734E-1
7.492995880E-1,-2.617149651E-1,-9.793225288E0,3.086741269E-1
7.517882340E-1,-2.617149651E-1,-9.795618057E0,3.086741269E-1
7.542768800E-1,-2.928216755E-1,-9.786046028E0,2.895315289E-1
7.567655780E-1,-2.258226424E-1,-9.783653259E0,2.464607358E-1
7.592542240E-1,-2.425723970E-1,-9.737891197E0,1.651047617E-1
7.617428690E-1,-3.239283562E-1,-9.769296646E0,8.344969153E-2
7.642315150E-1,-4.100699723E-1,-9.778867722E0,-1.465603895E-2
7.667201610E-1,-4.869394004E-1,-9.781260490E0,-2.183450572E-2
7.692088070E-1,-5.467599630E-1,-9.798010826E0,-5.054837838E-2
7.716975050E-1,-6.065805554E-1,-9.774082184E0,-6.969095767E-2
7.741379210E-1,-6.664010882E-1,-9.771689415E0,-4.815555736E-2
7.766265670E-1,-7.432705164E-1,-9.795618057E0,-5.294119939E-2
7.791152130E-1,-8.365905881E-1,-9.781260490E0,-3.619144112E-2
7.816038590E-1,-9.035896659E-1,-9.805189133E0,-1.465603895E-2
7.840925050E-1,-9.251250625E-1,-9.814760208E0,3.559323773E-2
7.865812030E-1,-1.018744230E0,-9.829116821E0,7.387840003E-2
7.890698490E-1,-1.052243710E0,-9.814760208E0,1.360917836E-1
7.915584940E-1,-1.061815023E0,-9.850652695E0,1.674975902E-1
7.940471400E-1,-1.092921734E0,-9.867402077E0,1.866401732E-1
7.965357860E-1,-1.131206870E0,-9.857831001E0,2.560320199E-1
7.990244320E-1,-1.071386337E0,-9.824331284E0,3.110669553E-1
8.015131300E-1,-1.023529887E0,-9.795618057E0,3.493520916E-1
8.039568800E-1,-9.658030272E-1,-9.795618057E0,3.230310678E-1
8.064455260E-1,-9.251250625E-1,-9.800403595E0,3.038884699E-1
8.089341710E-1,-8.629116416E-1,-9.749855042E0,3.349951804E-1
8.114228690E-1,-7.935197949E-1,-9.730711937E0,3.134597540E-1
8.139114630E-1,-7.169494629E-1,-9.733105659E0,2.512463629E-1
8.164001610E-1,-6.185446382E-1,-9.733105659E0,2.512463629E-1
8.188888070E-1,-5.371887088E-1,-9.740283966E0,1.842473447E-1
8.213774530E-1,-4.941178858E-1,-9.764211655E0,1.241276711E-1
8.238660990E-1,-4.821537733E-1,-9.764211655E0,4.277170449E-2
8.263547440E-1,-4.797609448E-1,-9.778867722E0,-3.140579537E-2
8.288433900E-1,-5.347958803E-1,-9.824331284E0,-8.165507019E-2
8.313320880E-1,-5.491527915E-1,-9.860223770E0,-9.361918271E-2
8.337710990E-1,-5.850451589E-1,-9.903294563E0,-1.537388563E-1
8.362597440E-1,-6.089733839E-1,-9.924830437E0,-1.417747438E-1
8.387483900E-1,-6.305087805E-1,-9.912865639E0,-9.840483218E-2
8.412370360E-1,-6.209374666E-1,-9.939187050E0,-9.122636169E-2
8.437256820E-1,-6.089733839E-1,-9.932008743E0,-9.361918271E-2
8.462143800E-1,-5.587241054E-1,-9.891330719E0,-6.251249462E-2
8.487030260E-1,-5.419743061E-1,-9.943972588E0,-4.815555736E-2
8.511916710E-1,-5.204389095E-1,-9.963115692E0,4.486542661E-3
8.536803170E-1,-4.582255483E-1,-9.939187050E0,3.080759197E-2
8.561689630E-1,-4.052843451E-1,-9.951150894E0,2.362912335E-2
8.586576090E-1,-3.334996700E-1,-9.943972588E0,4.995017126E-2
8.611463070E-1,-2.904288471E-1,-9.920044899E0,3.080759197E-2
8.635874010E-1,-2.521436810E-1,-9.955936432E0,-2.183450572E-2
8.660760460E-1,-2.760719061E-1,-9.994221687E0,-1.127617657E-1
8.685646920E-1,-2.353939265E-1,-1.000618649E1,-9.601201117E-2
8.710533380E-1,-2.449652255E-1,-1.005194855E1,-7.447660714E-2
8.735419840E-1,-2.784647346E-1,-1.003998470E1,-6.969095767E-2
8.760306820E-1,-2.736790776E-1,-1.003250694E1,-5.054837838E-2
8.785193280E-1,-3.167499006E-1,-1.001575756E1,-3.619144112E-2
8.810079740E-1,-3.023929596E-1,-1.001336479E1,1.645065658E-2
8.834966190E-1,-3.095714152E-1,-1.003998470E1,1.405783277E-2
8.859852650E-1,-3.382852972E-1,-1.002532864E1,5.712864175E-2
8.884739110E-1,-3.622135222E-1,-1.003489971E1,5.473581702E-2
8.909626090E-1,-3.909274042E-1,-1.001336479E1,4.277170449E-2
8.934047960E-1,-4.677968323E-1,-1.003011417E1,4.486542661E-3
8.958934420E-1,-5.443671346E-1,-1.006630611E1,1.884347759E-2
8.983820880E-1,-6.041877270E-1,-1.005434132E1,1.405783277E-2
9.008707860E-1,-6.520441771E-1,-1.003759193E1,1.166501082E-2
9.033593800E-1,-6.927221417E-1,-1.005434132E1,-7.477570791E-3
9.058480780E-1,-7.528418303E-1,-1.005194855E1,-2.991028305E-4
9.083367240E-1,-8.341978192E-1,-1.007348442E1,-9.870393202E-3
9.108253690E-1,-8.868398666E-1,-1.007587719E1,-2.662015148E-2
9.133140150E-1,-9.466604590E-1,-1.006869888E1,-2.901297435E-2
9.158027130E-1,-1.006780148E0,-1.009262657E1,-1.226321608E-2
9.182913590E-1,-1.023529887E0,-1.012851906E1,-6.251249462E-2
9.207800050E-1,-1.071386337E0,-1.012851906E1,-3.619144112E-2
9.232005260E-1,-1.035493970E0,-1.015723324E1,-2.422732860E-2
9.256891710E-1,-1.045065284E0,-1.009501934E1,-4.336991161E-2
9.281778170E-1,-1.061815023E0,-1.007348442E1,-6.490531564E-2
9.306664630E-1,-1.071386337E0,-1.013330460E1,-1.274178028E-1
9.331551090E-1,-1.121635556E0,-1.013569736E1,-1.704886109E-1
9.356438070E-1,-1.124028444E0,-1.015723324E1,-1.944168359E-1
9.381324530E-1,-1.124028444E0,-1.016680431E1,-2.255235314E-1
9.406210990E-1,-1.112064362E0,-1.018594646E1,-1.968096644E-1
9.431097440E-1,-1.035493970E0,-1.019791126E1,-1.680957973E-1
9.455983900E-1,-9.466604590E-1,-1.009501934E1,-1.127617657E-1
9.480870360E-1,-8.413762450E-1,-1.009262657E1,-7.208377868E-2
9.505757340E-1,-7.552346587E-1,-1.006391335E1,2.123630047E-2
9.530369320E-1,-6.544370055E-1,-9.994221687E0,7.387840003E-2
9.555255780E-1,-5.611169338E-1,-9.987043381E0,1.073779166E-1
9.580142240E-1,-4.316053987E-1,-9.975079536E0,1.603191197E-1
9.605028690E-1,-3.741776347E-1,-9.955936432E0,1.890329868E-1
9.629915150E-1,-2.976073027E-1,-9.920044899E0,1.842473447E-1
9.654802130E-1,-2.282154560E-1,-9.903294563E0,1.962114573E-1
9.679688590E-1,-2.090728730E-1,-9.893723488E0,2.057827413E-1
9.704575050E-1,-1.585244983E-1,-9.876974106E0,2.033899277E-1
9.729461510E-1,-1.899302900E-1,-9.841081619E0,1.890329868E-1
9.754347960E-1,-1.779661775E-1,-9.800403595E0,1.507478207E-1
9.779234420E-1,-1.827518344E-1,-9.812367439E0,1.384846121E-1
9.804121400E-1,-2.497508675E-1,-9.807581902E0,1.001994461E-1
9.828528170E-1,-2.928216755E-1,-9.805189133E0,6.669992954E-2
9.853414630E-1,-4.004986882E-1,-9.843474388E0,2.093719784E-3
9.878301090E-1,-5.371887088E-1,-9.848259926E0,-3.619144112E-2
9.903187550E-1,-6.161518097E-1,-9.888937950E0,-7.686942816E-2
9.928074010E-1,-7.022934556E-1,-9.917651176E0,-1.055833027E-1
9.952960990E-1,-7.911269665E-1,-9.917651176E0,-1.103689447E-1
9.977847440E-1,-8.772686124E-1,-9.939187050E0,-1.609173268E-1
1.000273390E0,-9.227322340E-1,-9.948758125E0,-1.680957973E-1
1.002762036E0,-9.924231768E-1,-9.972686768E0,-9.361918271E-2
1.005250682E0,-9.996016622E-1,-9.936794281E0,-6.490531564E-2
1.007739328E0,-1.018744230E0,-9.924830437E0,-9.870393202E-3
1.010228026E0,-1.018744230E0,-9.884152412E0,1.884347759E-2
1.012670474E0,-9.538389444E-1,-9.872187614E0,2.362912335E-2
1.015159119E0,-9.538389444E-1,-9.865009308E0,2.362912335E-2
1.017647817E0,-8.844470978E-1,-9.826724052E0,-1.704886183E-2
1.020136411E0,-8.365905881E-1,-9.800403595E0,-8.644071966E-2
1.022625057E0,-7.839485407E-1,-9.764211655E0,-1.322034448E-1
1.025113755E0,-7.145566344E-1,-9.716355324E0,-1.345962733E-1
1.027602401E0,-6.999006271E-1,-9.735498428E0,-2.087737769E-1
1.030091046E0,-6.544370055E-1,-9.733105659E0,-2.781656384E-1
1.032579692E0,-6.257231236E-1,-9.697213173E0,-2.973082066E-1
1.035068338E0,-5.898307562E-1,-9.685248375E0,-2.949153781E-1
1.037557036E0,-5.874379873E-1,-9.687641144E0,-3.332005441E-1
1.040045682E0,-5.515456200E-1,-9.646963120E0,-3.882354796E-1
1.042496255E0,-5.467599630E-1,-9.680462837E0,-3.116651475E-1
1.044984901E0,-5.012963414E-1,-9.673284531E0,-2.973082066E-1
1.047473546E0,-5.156532526E-1,-9.663713455E0,-2.662015259E-1
1.049962192E0,-5.108676553E-1,-9.627820969E0,-2.638086975E-1
1.052450838E0,-5.084748268E-1,-9.649356842E0,-2.757728100E-1
1.054939536E0,-5.347958803E-1,-9.673284531E0,-2.279163599E-1
1.057428182E0,-5.826523304E-1,-9.687641144E0,-2.015953064E-1
1.059916828E0,-5.970092416E-1,-9.697213173E0,-1.968096644E-1
1.062405474E0,-6.065805554E-1,-9.692427635E0,-2.135594189E-1
1.064894119E0,-6.448656917E-1,-9.735498428E0,-2.111666054E-1
1.067382765E0,-7.049853802E-1,-9.757033348E0,-2.638086975E-1
1.069871463E0,-7.743772268E-1,-9.795618057E0,-2.901297510E-1
1.072302817E0,-8.222336769E-1,-9.850652695E0,-2.949153781E-1
1.074790682E0,-8.700901270E-1,-9.860223770E0,-2.997010350E-1
1.077278546E0,-9.466604590E-1,-9.939187050E0,-3.068794906E-1
1.079766411E0,-1.009172916E0,-9.977472305E0,-2.973082066E-1
1.082254276E0,-1.018744230E0,-9.967901230E0,-2.829512656E-1
1.084742140E0,-1.023529887E0,-9.987043381E0,-2.494517565E-1
1.087230005E0,-1.037886858E0,-1.000618649E1,-1.944168359E-1
1.089717869E0,-9.828519225E-1,-1.000379372E1,-1.489532143E-1
1.092205734E0,-9.514461160E-1,-9.939187050E0,-1.441675574E-1
1.094693599E0,-9.251250625E-1,-9.948758125E0,-1.031904742E-1
1.097181463E0,-8.868398666E-1,-9.967901230E0,-9.601201117E-2
1.099669328E0,-8.174480200E-1,-9.967901230E0,-7.447660714E-2
1.102118859E0,-7.480561733E-1,-9.946365356E0,-8.644071966E-2
1.104606724E0,-7.313064337E-1,-9.924830437E0,-3.858426586E-2
1.107094588E0,-6.592226624E-1,-9.896116257E0,-6.969095767E-2
1.109582453E0,-5.994020700E-1,-9.865009308E0,-6.251249462E-2
1.112070317E0,-5.180460811E-1,-9.865009308E0,-5.533402413E-2
1.114558182E0,-4.725824594E-1,-9.841081619E0,-1.465603895E-2
1.117046046E0,-3.909274042E-1,-9.824331284E0,-7.447660714E-2
1.119533911E0,-3.239283562E-1,-9.798010826E0,-8.644071966E-2
1.122021776E0,-2.712862790E-1,-9.800403595E0,-1.079761237E-1
1.124509640E0,-2.377867550E-1,-9.805189133E0,-1.513460279E-1
1.126997505E0,-2.473580390E-1,-9.821938515E0,-1.704886109E-1
1.129485369E0,-2.425723970E-1,-9.817152977E0,-1.728814393E-1
1.131935994E0,-2.904288471E-1,-9.824331284E0,-1.872383654E-1
1.134423859E0,-2.856431901E-1,-9.850652695E0,-2.183450609E-1
1.136911724E0,-3.646063507E-1,-9.833903313E0,-2.279163599E-1
1.139399588E0,-3.909274042E-1,-9.884152412E0,-2.279163599E-1
1.141887453E0,-4.510470629E-1,-9.884152412E0,-2.039881349E-1
1.144375317E0,-5.204389095E-1,-9.876974106E0,-1.944168359E-1
1.146863182E0,-5.443671346E-1,-9.893723488E0,-1.872383654E-1
1.149351046E0,-6.257231236E-1,-9.941579819E0,-2.207378894E-1
1.151838911E0,-7.767700553E-1,-9.996614456E0,-2.685943544E-1
1.154326776E0,-8.844470978E-1,-1.004237747E1,-2.566302419E-1
1.156814640E0,-9.972088337E-1,-1.007348442E1,-2.590230405E-1
1.159302505E0,-1.119242787E0,-1.009262657E1,-1.944168359E-1
1.161751411E0,-1.200598717E0,-1.014287567E1,-1.298106313E-1
1.164239276E0,-1.253539920E0,-1.016919708E1,-4.336991161E-2
1.166727140E0,-1.291825175E0,-1.015244770E1,-2.662015148E-2
1.169215005E0,-1.306182027E0,-1.015962601E1,1.049850956E-1
1.171702869E0,-1.294217944E0,-1.014766216E1,1.698904037E-1
1.174190734E0,-1.322931767E0,-1.012612629E1,2.105683982E-1
1.176678599E0,-1.342074394E0,-1.012373352E1,2.488535494E-1
1.179166463E0,-1.334895968E0,-1.009741211E1,2.703889608E-1
1.181654328E0,-1.344467282E0,-1.006869888E1,2.656033039E-1
1.184142192E0,-1.258325577E0,-1.003011417E1,2.560320199E-1
1.186630057E0,-1.224527001E0,-9.987043381E0,2.273181528E-1
1.189117921E0,-1.150349498E0,-9.908080101E0,1.866401732E-1
1.191568078E0,-1.064207911E0,-9.900901794E0,1.456630826E-1
1.194055942E0,-9.756734371E-1,-9.888937950E0,6.430710852E-2
1.196543807E0,-9.634101987E-1,-9.884152412E0,1.645065658E-2
1.199031671E0,-9.131609201E-1,-9.853045464E0,-6.011966988E-2
1.201519536E0,-8.700901270E-1,-9.831509590E0,-9.601201117E-2
1.204007401E0,-8.676972985E-1,-9.819545746E0,-1.369891018E-1
1.206495265E0,-8.078767657E-1,-9.809974670E0,-1.752742529E-1
1.208983130E0,-7.719843984E-1,-9.802796364E0,-2.207378894E-1
1.211470994E0,-7.648059130E-1,-9.795618057E0,-2.590230405E-1
1.213958859E0,-7.576274872E-1,-9.817152977E0,-2.709871531E-1
1.216446724E0,-7.528418303E-1,-9.821938515E0,-2.279163599E-1
1.218934588E0,-7.432705164E-1,-9.824331284E0,-2.231307179E-1
1.221397453E0,-7.360920906E-1,-9.807581902E0,-2.015953064E-1
1.223885317E0,-7.145566344E-1,-9.800403595E0,-2.087737769E-1
1.226373182E0,-7.097710371E-1,-9.781260490E0,-1.896311939E-1
1.228861046E0,-6.879364848E-1,-9.783653259E0,-2.015953064E-1
1.231348911E0,-6.448656917E-1,-9.761818886E0,-1.800599098E-1
1.233836776E0,-6.520441771E-1,-9.774082184E0,-1.944168359E-1
1.236324640E0,-6.975077987E-1,-9.759426117E0,-2.494517565E-1
1.238812505E0,-7.097710371E-1,-9.795618057E0,-2.590230405E-1
1.241300369E0,-6.903293133E-1,-9.807581902E0,-2.901297510E-1
1.243788234E0,-7.097710371E-1,-9.805189133E0,-3.236292601E-1
1.246276099E0,-7.073782086E-1,-9.790832520E0,-2.853440940E-1
1.248763963E0,-6.903293133E-1,-9.776474953E0,-3.260220885E-1
1.251195057E0,-6.927221417E-1,-9.790832520E0,-3.595215976E-1
1.253682921E0,-7.073782086E-1,-9.795618057E0,-3.643072546E-1
1.256170786E0,-6.879364848E-1,-9.833903313E0,-3.427718580E-1
1.258658651E0,-7.097710371E-1,-9.814760208E0,-3.714857101E-1
1.261146515E0,-7.241279483E-1,-9.860223770E0,-3.523431420E-1
1.263634380E0,-7.049853802E-1,-9.831509590E0,-2.973082066E-1
1.266122244E0,-7.265207767E-1,-9.824331284E0,-2.566302419E-1
1.268610109E0,-6.735795736E-1,-9.838688850E0,-2.159522474E-1
1.271097974E0,-6.424728632E-1,-9.860223770E0,-1.680957973E-1
1.273585838E0,-6.640082598E-1,-9.848259926E0,-1.031904742E-1
1.276073703E0,-6.113662124E-1,-9.855438232E0,-9.122636169E-2
1.278561567E0,-6.257231236E-1,-9.826724052E0,-3.379862010E-2
1.281036515E0,-5.970092416E-1,-9.862616539E0,1.166501082E-2
1.283524380E0,-5.946164131E-1,-9.850652695E0,4.995017126E-2
1.286012244E0,-5.730810165E-1,-9.800403595E0,9.780662507E-2
1.288500109E0,-5.778666735E-1,-9.805189133E0,1.217348501E-1
1.290987974E0,-5.563312769E-1,-9.766604424E0,8.105687052E-2
1.293475838E0,-5.491527915E-1,-9.793225288E0,1.166501082E-2
1.295963703E0,-5.778666735E-1,-9.776474953E0,-3.140579537E-2
1.298451567E0,-6.233302951E-1,-9.766604424E0,-1.250249892E-1
1.300939432E0,-6.903293133E-1,-9.807581902E0,-1.633101404E-1
1.303427296E0,-7.528418303E-1,-9.783653259E0,-2.111666054E-1
1.305915161E0,-8.294121623E-1,-9.836296082E0,-2.901297510E-1
1.308403026E0,-9.179465771E-1,-9.917651176E0,-3.188436031E-1
1.310831776E0,-9.948160052E-1,-9.915258408E0,-3.547359705E-1
1.313319640E0,-1.157527924E0,-9.934401512E0,-3.690928817E-1
1.315807505E0,-1.253539920E0,-9.994221687E0,-3.427718580E-1
1.318295369E0,-1.289432287E0,-9.979865074E0,-2.805584669E-1
1.320783234E0,-1.342074394E0,-1.001336479E1,-2.063809484E-1
1.323271099E0,-1.406680584E0,-1.004477024E1,-1.776670814E-1
1.325758963E0,-1.418644667E0,-1.001336479E1,-8.644071966E-2
1.328246828E0,-1.385145187E0,-1.003759193E1,-4.815555736E-2
1.330734692E0,-1.368395448E0,-1.005434132E1,-1.704886183E-2
1.333222557E0,-1.363609791E0,-1.003759193E1,3.080759197E-2
1.335710421E0,-1.322931767E0,-1.006630611E1,1.405783277E-2
1.338198286E0,-1.299003601E0,-1.009023380E1,1.645065658E-2
1.340648026E0,-1.279860973E0,-1.006391335E1,4.516452923E-2
1.343135890E0,-1.234098315E0,-1.004237747E1,4.037888348E-2
1.345623755E0,-1.145563841E0,-1.000139999E1,1.884347759E-2
1.348111619E0,-1.068993568E0,-9.979865074E0,3.080759197E-2
1.350599484E0,-1.006780148E0,-9.965508461E0,-2.991028305E-4
1.353087349E0,-9.442676306E-1,-9.920044899E0,1.405783277E-2
1.355575213E0,-8.748757839E-1,-9.888937950E0,-2.183450572E-2
1.358063078E0,-8.078767657E-1,-9.893723488E0,-2.662015148E-2
1.360550942E0,-7.313064337E-1,-9.862616539E0,-3.858426586E-2
1.363038807E0,-6.783652306E-1,-9.850652695E0,-7.447660714E-2
1.365526671E0,-6.664010882E-1,-9.814760208E0,-5.054837838E-2
1.368014536E0,-6.664010882E-1,-9.790832520E0,-9.840483218E-2
1.370463963E0,-6.472585201E-1,-9.821938515E0,-1.151545867E-1
1.372951828E0,-6.257231236E-1,-9.814760208E0,-1.103689447E-1
1.375439692E0,-6.352944374E-1,-9.790832520E0,-1.007976532E-1
1.377927557E0,-6.520441771E-1,-9.795618057E0,-8.883354068E-2
1.380415421E0,-6.376872063E-1,-9.788438797E0,-1.079761237E-1
1.382903286E0,-6.711867452E-1,-9.795618057E0,-1.007976532E-1
1.385391151E0,-7.360920906E-1,-9.802796364E0,-1.199402362E-1
1.387879015E0,-7.695915699E-1,-9.821938515E0,-1.250249892E-1
1.390366880E0,-8.078767657E-1,-9.860223770E0,-1.079761237E-1
1.392854744E0,-8.748757839E-1,-9.908080101E0,-1.369891018E-1
1.395342609E0,-9.275178909E-1,-9.934401512E0,-1.704886109E-1
1.397830474E0,-1.013958573E0,-9.953543663E0,-1.800599098E-1
1.400281359E0,-1.085743308E0,-9.999007225E0,-1.776670814E-1
1.402769224E0,-1.155135155E0,-9.951150894E0,-1.944168359E-1
1.405257088E0,-1.202991605E0,-1.001336479E1,-1.872383654E-1
1.407744953E0,-1.263111234E0,-1.003759193E1,-2.135594189E-1
1.410232817E0,-1.303789258E0,-1.003489971E1,-1.776670814E-1
1.412720682E0,-1.337288737E0,-1.004955578E1,-1.657029688E-1
1.415208546E0,-1.322931767E0,-1.008305550E1,-1.274178028E-1
1.417696411E0,-1.306182027E0,-1.008784103E1,-1.199402362E-1
1.420184276E0,-1.255932808E0,-1.009023380E1,-1.079761237E-1
1.422672140E0,-1.236491084E0,-1.007109165E1,-8.883354068E-2
1.425160005E0,-1.159920812E0,-1.001097202E1,-4.097708687E-2
1.427647869E0,-1.109671474E0,-9.999007225E0,-5.772684515E-2
1.430098859E0,-1.013958573E0,-9.984650612E0,-6.251249462E-2
1.432586724E0,-9.732806087E-1,-9.958329201E0,-2.422732860E-2
1.435074588E0,-9.346963167E-1,-9.936794281E0,-9.870393202E-3
1.437562453E0,-8.892326951E-1,-9.922437668E0,6.879365072E-3
1.440050317E0,-8.533403873E-1,-9.886545181E0,3.320041299E-2
1.442538182E0,-8.174480200E-1,-9.855438232E0,4.516452923E-2
1.445026046E0,-7.935197949E-1,-9.831509590E0,8.823533356E-2
1.447513911E0,-7.432705164E-1,-9.788438797E0,1.265204996E-1
1.450001776E0,-7.073782086E-1,-9.747462273E0,1.746760458E-1
1.452489640E0,-6.735795736E-1,-9.754640579E0,1.674975902E-1
1.454977505E0,-6.879364848E-1,-9.759426117E0,1.360917836E-1
1.457465369E0,-6.687939167E-1,-9.728319168E0,1.193420291E-1
1.459914432E0,-6.640082598E-1,-9.713962555E0,1.121635586E-1
1.462402296E0,-6.257231236E-1,-9.718748093E0,5.473581702E-2
1.464890161E0,-6.233302951E-1,-9.685248375E0,-1.944168471E-2
1.467378026E0,-6.592226624E-1,-9.673284531E0,-1.127617657E-1
1.469865890E0,-6.376872063E-1,-9.706784248E0,-1.657029688E-1
1.472353755E0,-6.687939167E-1,-9.733105659E0,-1.728814393E-1
1.474841619E0,-7.145566344E-1,-9.735498428E0,-2.255235314E-1
1.477329484E0,-7.336992621E-1,-9.761818886E0,-2.901297510E-1
1.479817349E0,-7.887341380E-1,-9.749855042E0,-3.164508045E-1
1.482305213E0,-8.150551915E-1,-9.786046028E0,-4.220340848E-1
1.484793078E0,-9.107680917E-1,-9.809974670E0,-4.603192508E-1
1.487280942E0,-9.732806087E-1,-9.845867157E0,-5.297111273E-1
1.489732974E0,-1.035493970E0,-9.884152412E0,-4.914259613E-1
1.492220838E0,-1.092921734E0,-9.910472870E0,-4.770690203E-1
1.494708703E0,-1.109671474E0,-9.924830437E0,-4.674977362E-1
1.497196567E0,-1.121635556E0,-9.900901794E0,-4.483551383E-1
1.499684432E0,-1.147956610E0,-9.939187050E0,-4.100699723E-1
1.502172296E0,-1.126421213E0,-9.943972588E0,-3.212364316E-1
1.504660161E0,-1.128814101E0,-9.951150894E0,-3.092723191E-1
1.507148026E0,-1.092921734E0,-9.929615974E0,-2.566302419E-1
1.509635890E0,-1.090528965E0,-9.924830437E0,-2.087737769E-1
1.512123755E0,-1.021137118E0,-9.915258408E0,-1.585244983E-1
1.514611619E0,-9.586246014E-1,-9.924830437E0,-8.165507019E-2
1.517099484E0,-8.892326951E-1,-9.917651176E0,-4.336991161E-2
1.519547349E0,-8.676972985E-1,-9.896116257E0,-3.379862010E-2
1.522035213E0,-8.509475589E-1,-9.872187614E0,-1.704886183E-2
1.524523078E0,-8.413762450E-1,-9.869794846E0,1.405783277E-2
1.527010942E0,-8.246265054E-1,-9.879366875E0,3.798605874E-2
1.529498807E0,-7.983054519E-1,-9.838688850E0,3.798605874E-2
1.531986671E0,-8.174480200E-1,-9.848259926E0,7.627122104E-2
1.534474536E0,-7.935197949E-1,-9.879366875E0,7.148557901E-2
1.536962401E0,-7.815557122E-1,-9.841081619E0,7.627122104E-2
1.539450265E0,-7.815557122E-1,-9.814760208E0,4.516452923E-2
1.541938130E0,-7.863413692E-1,-9.843474388E0,3.080759197E-2
1.544425994E0,-8.413762450E-1,-9.824331284E0,2.602194622E-2
1.546913859E0,-8.748757839E-1,-9.850652695E0,-3.619144112E-2
1.549363494E0,-8.940183520E-1,-9.829116821E0,-7.926224917E-2
1.551851359E0,-9.828519225E-1,-9.809974670E0,-1.175474152E-1
1.554339224E0,-1.021137118E0,-9.843474388E0,-1.489532143E-1
1.556827088E0,-1.018744230E0,-9.845867157E0,-1.609173268E-1
1.559314953E0,-1.047458172E0,-9.841081619E0,-2.303091735E-1
1.561802817E0,-1.061815023E0,-9.848259926E0,-2.901297510E-1
1.564290682E0,-1.078564763E0,-9.872187614E0,-2.829512656E-1
1.566778546E0,-1.088136077E0,-9.884152412E0,-3.475574851E-1
1.569266411E0,-1.112064362E0,-9.869794846E0,-3.690928817E-1
1.571754276E0,-1.078564763E0,-9.855438232E0,-3.834498227E-1
1.574242140E0,-1.078564763E0,-9.853045464E0,-3.547359705E-1
1.576730005E0,-1.066600680E0,-9.893723488E0,-3.403790295E-1
1.579178078E0,-1.035493970E0,-9.917651176E0,-3.571287692E-1
1.581665317E0,-1.047458172E0,-9.922437668E0,-3.403790295E-1
1.584152505E0,-1.030708313E0,-9.924830437E0,-2.973082066E-1
1.586639744E0,-9.708877802E-1,-9.929615974E0,-2.470589429E-1
1.589126984E0,-9.299107194E-1,-9.917651176E0,-2.279163599E-1
1.591614224E0,-8.940183520E-1,-9.932008743E0,-1.896311939E-1
1.594101463E0,-8.916255236E-1,-9.958329201E0,-1.585244983E-1
1.596588651E0,-9.059824944E-1,-9.984650612E0,-1.489532143E-1
1.599075890E0,-9.490532875E-1,-1.001815033E1,-1.322034448E-1
1.601563130E0,-9.780662656E-1,-1.000379372E1,-1.151545867E-1
1.604050369E0,-1.028315544E0,-1.002772141E1,-1.007976532E-1
1.606537557E0,-1.054636598E0,-1.005673409E1,-6.969095767E-2
1.608995057E0,-1.097707391E0,-1.007348442E1,-7.208377868E-2
1.611482296E0,-1.169492126E0,-1.008784103E1,-6.251249462E-2
1.613969536E0,-1.226919770E0,-1.009501934E1,-2.901297435E-2
1.616456724E0,-1.287039518E0,-1.008784103E1,1.405783277E-2
1.618943963E0,-1.318146229E0,-1.012612629E1,6.430710852E-2
1.621431203E0,-1.404287815E0,-1.011176968E1,1.097707376E-1
1.623918442E0,-1.447358608E0,-1.006152058E1,2.057827413E-1
1.626405630E0,-1.447358608E0,-1.004477024E1,2.679961324E-1
1.628892869E0,-1.428215981E0,-1.002293587E1,3.349951804E-1
1.631380109E0,-1.399502158E0,-1.002293587E1,3.445664644E-1
1.633867349E0,-1.351645708E0,-9.970293999E0,3.684946895E-1
1.636354536E0,-1.310967684E0,-9.948758125E0,3.445664644E-1
1.638814380E0,-1.282253861E0,-9.932008743E0,2.512463629E-1
1.641301619E0,-1.219741344E0,-9.910472870E0,2.297109663E-1
1.643788859E0,-1.174277663E0,-9.888937950E0,1.603191197E-1
1.646276046E0,-1.150349498E0,-9.888937950E0,4.755735025E-2
1.648763286E0,-1.114457130E0,-9.886545181E0,-9.870393202E-3
1.651250526E0,-1.107278705E0,-9.869794846E0,-7.208377868E-2
1.653737765E0,-1.040279627E0,-9.848259926E0,-1.513460279E-1
1.656224953E0,-9.972088337E-1,-9.843474388E0,-2.183450609E-1
1.658712192E0,-9.780662656E-1,-9.814760208E0,-2.925225794E-1
1.661199432E0,-9.681958556E-1,-9.809974670E0,-3.140579760E-1
1.663686671E0,-9.466604590E-1,-9.807581902E0,-3.595215976E-1
1.666173859E0,-8.988040090E-1,-9.790832520E0,-3.714857101E-1
1.668626515E0,-9.035896659E-1,-9.798010826E0,-3.355933726E-1
1.671113755E0,-8.772686124E-1,-9.814760208E0,-3.308077157E-1
1.673600994E0,-8.653044701E-1,-9.786046028E0,-2.877369225E-1
1.676088182E0,-8.964111805E-1,-9.793225288E0,-2.829512656E-1
1.678575421E0,-9.275178909E-1,-9.790832520E0,-3.092723191E-1
1.681062661E0,-9.227322340E-1,-9.766604424E0,-3.164508045E-1
1.683549901E0,-9.394819736E-1,-9.805189133E0,-2.709871531E-1
1.686037088E0,-9.732806087E-1,-9.774082184E0,-2.398804724E-1
1.688524328E0,-9.924231768E-1,-9.795618057E0,-2.039881349E-1
1.691011567E0,-9.708877802E-1,-9.781260490E0,-1.345962733E-1
1.693498807E0,-9.658030272E-1,-9.757033348E0,-1.561316848E-1
1.695985994E0,-1.001994491E0,-9.788438797E0,-1.776670814E-1
1.698444015E0,-1.033101201E0,-9.778867722E0,-1.513460279E-1
1.700931255E0,-1.083350420E0,-9.814760208E0,-1.055833027E-1
1.703418494E0,-1.078564763E0,-9.814760208E0,-8.644071966E-2
1.705905682E0,-1.064207911E0,-9.778867722E0,-9.601201117E-2
1.708392921E0,-1.071386337E0,-9.814760208E0,-8.883354068E-2
1.710880161E0,-1.040279627E0,-9.805189133E0,-4.576273263E-2
1.713367401E0,-1.045065284E0,-9.788438797E0,-4.097708687E-2
1.715854588E0,-1.047458172E0,-9.795618057E0,-6.729813665E-2
1.718341828E0,-1.042672515E0,-9.761818886E0,-7.447660714E-2
1.720829067E0,-1.078564763E0,-9.805189133E0,-1.031904742E-1
1.723316307E0,-1.135992527E0,-9.817152977E0,-1.752742529E-1
1.725803546E0,-1.167099237E0,-9.817152977E0,-1.992024779E-1
1.728260005E0,-1.179063320E0,-9.848259926E0,-2.039881349E-1
1.730747244E0,-1.243968725E0,-9.824331284E0,-2.303091735E-1
1.733234484E0,-1.275075316E0,-9.807581902E0,-2.733799815E-1
1.735721671E0,-1.289432287E0,-9.881759644E0,-3.020938635E-1
1.738208911E0,-1.327717423E0,-9.867402077E0,-2.566302419E-1
1.740696151E0,-1.346860051E0,-9.881759644E0,-2.877369225E-1
1.743183390E0,-1.327717423E0,-9.905687332E0,-2.805584669E-1
1.745670578E0,-1.327717423E0,-9.857831001E0,-2.638086975E-1
1.748157817E0,-1.363609791E0,-9.872187614E0,-2.374876440E-1
1.750645057E0,-1.370788217E0,-9.857831001E0,-2.087737769E-1
1.753132296E0,-1.325324655E0,-9.874580383E0,-1.728814393E-1
1.755619484E0,-1.318146229E0,-9.855438232E0,-1.298106313E-1
1.758078859E0,-1.279860973E0,-9.869794846E0,-8.883354068E-2
1.760566099E0,-1.265504122E0,-9.829116821E0,-1.704886183E-2
1.763053338E0,-1.217348576E0,-9.824331284E0,-4.097708687E-2
1.765540526E0,-1.202991605E0,-9.817152977E0,-2.183450572E-2
1.768027765E0,-1.243968725E0,-9.798010826E0,3.798605874E-2
1.770515005E0,-1.183848977E0,-9.757033348E0,5.712864175E-2
1.773002244E0,-1.200598717E0,-9.757033348E0,3.320041299E-2
1.775489432E0,-1.191027522E0,-9.737891197E0,1.884347759E-2
1.777976671E0,-1.186241865E0,-9.725926399E0,2.093719784E-3
1.780463911E0,-1.229312658E0,-9.757033348E0,1.884347759E-2
1.782951151E0,-1.246361494E0,-9.730711937E0,-7.477570791E-3
1.785438338E0,-1.277468204E0,-9.711569786E0,-4.336991161E-2
1.787893286E0,-1.320538998E0,-9.735498428E0,-7.926224917E-2
1.790380526E0,-1.382752419E0,-9.730711937E0,-1.322034448E-1
1.792867765E0,-1.380359530E0,-9.709177017E0,-1.609173268E-1
1.795354953E0,-1.447358608E0,-9.721140862E0,-1.752742529E-1
1.797842192E0,-1.449751377E0,-9.757033348E0,-1.704886109E-1
1.800329432E0,-1.447358608E0,-9.798010826E0,-1.489532143E-1
1.802816671E0,-1.471286774E0,-9.757033348E0,-1.199402362E-1
1.805303859E0,-1.389930844E0,-9.730711937E0,-1.031904742E-1
1.807791099E0,-1.337288737E0,-9.749855042E0,-1.322034448E-1
1.810278338E0,-1.339681625E0,-9.788438797E0,-1.561316848E-1
1.812765578E0,-1.289432287E0,-9.817152977E0,-1.537388563E-1
1.815252765E0,-1.219741344E0,-9.790832520E0,-1.199402362E-1
1.817707453E0,-1.167099237E0,-9.826724052E0,-1.752742529E-1
1.820194692E0,-1.138385415E0,-9.829116821E0,-1.968096644E-1
1.822681932E0,-1.054636598E0,-9.848259926E0,-1.848455518E-1
1.825169119E0,-9.972088337E-1,-9.884152412E0,-1.441675574E-1
1.827656359E0,-9.804590940E-1,-9.869794846E0,-1.680957973E-1
1.830143599E0,-9.466604590E-1,-9.905687332E0,-1.513460279E-1
1.832630838E0,-9.203394055E-1,-9.927223206E0,-1.585244983E-1
1.835118026E0,-9.179465771E-1,-9.941579819E0,-1.393819153E-1
1.837605265E0,-9.155537486E-1,-9.955936432E0,-1.226321608E-1
1.840092505E0,-9.107680917E-1,-9.946365356E0,-1.127617657E-1
1.842579744E0,-9.251250625E-1,-9.967901230E0,-1.704886183E-2
1.845066932E0,-9.035896659E-1,-9.951150894E0,2.602194622E-2
1.847525005E0,-9.155537486E-1,-9.955936432E0,8.584251255E-2
1.850012244E0,-9.227322340E-1,-9.967901230E0,1.025922745E-1
1.852499484E0,-9.442676306E-1,-9.975079536E0,1.360917836E-1
1.854986671E0,-9.681958556E-1,-9.924830437E0,1.627119333E-1
1.857473911E0,-1.004387259E0,-9.905687332E0,1.986042857E-1
1.859961151E0,-1.057029366E0,-9.898509026E0,2.105683982E-1
1.862448390E0,-1.073779106E0,-9.872187614E0,1.651047617E-1
1.864935578E0,-1.100100160E0,-9.836296082E0,1.193420291E-1
1.867422817E0,-1.124028444E0,-9.857831001E0,1.049850956E-1
1.869910057E0,-1.147956610E0,-9.829116821E0,2.123630047E-2
1.872397296E0,-1.181456208E0,-9.814760208E0,-2.183450572E-2
1.874884484E0,-1.171884894E0,-9.853045464E0,-7.208377868E-2
1.877341151E0,-1.171884894E0,-9.798010826E0,-1.031904742E-1
1.879828390E0,-1.179063320E0,-9.764211655E0,-1.920240223E-1
1.882315630E0,-1.207777262E0,-9.805189133E0,-2.542374134E-1
1.884802817E0,-1.219741344E0,-9.831509590E0,-3.332005441E-1
1.887290057E0,-1.253539920E0,-9.848259926E0,-3.523431420E-1
1.889777296E0,-1.263111234E0,-9.838688850E0,-3.571287692E-1
1.892264536E0,-1.214955688E0,-9.865009308E0,-3.499503136E-1
1.894751724E0,-1.222134113E0,-9.900901794E0,-3.116651475E-1
1.897238963E0,-1.205384374E0,-9.891330719E0,-3.020938635E-1
1.899726203E0,-1.193420291E0,-9.915258408E0,-2.279163599E-1
1.902213442E0,-1.147956610E0,-9.910472870E0,-1.800599098E-1
1.904700630E0,-1.116850019E0,-9.881759644E0,-1.250249892E-1
1.907157140E0,-1.092921734E0,-9.891330719E0,-8.404789865E-2
1.909644380E0,-1.092921734E0,-9.922437668E0,-6.969095767E-2
1.912131619E0,-1.080957651E0,-9.941579819E0,-9.870393202E-3
1.914618807E0,-1.071386337E0,-9.876974106E0,6.879365072E-3
1.917106046E0,-1.071386337E0,-9.867402077E0,5.473581702E-2
1.919593286E0,-1.049850941E0,-9.855438232E0,9.541380405E-2
1.922080526E0,-1.030708313E0,-9.817152977E0,1.073779166E-1
1.924567713E0,-1.047458172E0,-9.809974670E0,1.121635586E-1
1.927054953E0,-1.037886858E0,-9.857831001E0,8.584251255E-2
1.929542192E0,-1.073779106E0,-9.809974670E0,6.669992954E-2
1.932029432E0,-1.143171072E0,-9.814760208E0,8.584251255E-2
1.934516619E0,-1.169492126E0,-9.793225288E0,2.602194622E-2
1.936974692E0,-1.260718465E0,-9.850652695E0,-7.477570791E-3
1.939461932E0,-1.325324655E0,-9.838688850E0,-1.944168471E-2
1.941949171E0,-1.370788217E0,-9.838688850E0,-5.054837838E-2
1.944436359E0,-1.435394526E0,-9.819545746E0,-6.729813665E-2
1.946923599E0,-1.464108348E0,-9.845867157E0,-7.447660714E-2
1.949410838E0,-1.466501236E0,-9.869794846E0,-6.969095767E-2
1.951898078E0,-1.485643744E0,-9.872187614E0,-8.165507019E-2
1.954385265E0,-1.504786372E0,-9.867402077E0,-7.686942816E-2
1.956872505E0,-1.545763373E0,-9.898509026E0,-1.079761237E-1
1.959359744E0,-1.517049551E0,-9.912865639E0,-1.274178028E-1
1.961846984E0,-1.488036633E0,-9.896116257E0,-1.441675574E-1
1.964334171E0,-1.483250976E0,-9.922437668E0,-1.175474152E-1
1.966791255E0,-1.413859129E0,-9.948758125E0,-1.298106313E-1
1.969278494E0,-1.351645708E0,-9.958329201E0,-1.393819153E-1
1.971765734E0,-1.299003601E0,-9.915258408E0,-1.609173268E-1
1.974252921E0,-1.255932808E0,-9.910472870E0,-1.776670814E-1
1.976740161E0,-1.193420291E0,-9.908080101E0,-2.087737769E-1
1.979227401E0,-1.147956610E0,-9.922437668E0,-2.350948304E-1
1.981714640E0,-1.116850019E0,-9.929615974E0,-2.111666054E-1
1.984201828E0,-1.090528965E0,-9.927223206E0,-2.685943544E-1
1.986689067E0,-1.088136077E0,-9.929615974E0,-3.164508045E-1
1.989176307E0,-1.057029366E0,-9.912865639E0,-3.020938635E-1
1.991663546E0,-1.040279627E0,-9.903294563E0,-3.619144261E-1
1.994150734E0,-9.948160052E-1,-9.879366875E0,-3.355933726E-1
1.996606359E0,-1.028315544E0,-9.896116257E0,-3.571287692E-1
1.999093599E0,-1.092921734E0,-9.917651176E0,-4.052843451E-1
2.001580838E0,-1.171884894E0,-9.948758125E0,-3.762713671E-1
2.004068026E0,-1.179063320E0,-9.953543663E0,-3.116651475E-1
2.006555265E0,-1.226919770E0,-9.975079536E0,-2.614158690E-1
2.009042505E0,-1.246361494E0,-9.979865074E0,-2.207378894E-1
2.011529744E0,-1.296610713E0,-9.936794281E0,-1.175474152E-1
2.014016932E0,-1.320538998E0,-9.943972588E0,-6.011966988E-2
2.016504171E0,-1.370788217E0,-9.939187050E0,-4.097708687E-2
2.018991411E0,-1.385145187E0,-9.960722923E0,-3.379862010E-2
2.021478651E0,-1.370788217E0,-9.946365356E0,-7.477570791E-3
2.023965838E0,-1.389930844E0,-9.912865639E0,1.884347759E-2
2.026448026E0,-1.399502158E0,-9.900901794E0,2.093719784E-3
2.028935265E0,-1.380359530E0,-9.838688850E0,-2.183450572E-2
2.031422505E0,-1.380359530E0,-9.853045464E0,-4.815555736E-2
2.033909692E0,-1.375573874E0,-9.807581902E0,-7.208377868E-2
2.036396932E0,-1.334895968E0,-9.795618057E0,-1.199402362E-1
2.038884171E0,-1.337288737E0,-9.790832520E0,-2.039881349E-1
2.041371411E0,-1.330110312E0,-9.793225288E0,-2.949153781E-1
2.043858599E0,-1.322931767E0,-9.800403595E0,-3.571287692E-1
2.046345838E0,-1.330110312E0,-9.769296646E0,-4.411766827E-1
2.048833078E0,-1.322931767E0,-9.776474953E0,-5.057829022E-1
2.051320317E0,-1.294217944E0,-9.764211655E0,-4.890331328E-1
2.053807505E0,-1.275075316E0,-9.788438797E0,-5.273182988E-1
2.056238599E0,-1.270289779E0,-9.805189133E0,-5.608177781E-1
2.058725838E0,-1.258325577E0,-9.798010826E0,-5.392823815E-1
2.061213078E0,-1.243968725E0,-9.807581902E0,-5.273182988E-1
2.063700265E0,-1.246361494E0,-9.814760208E0,-5.249254704E-1
2.066187505E0,-1.231705427E0,-9.841081619E0,-4.794618487E-1
2.068674744E0,-1.219741344E0,-9.867402077E0,-3.738785386E-1
2.071161984E0,-1.188634634E0,-9.850652695E0,-3.523431420E-1
2.073649171E0,-1.191027522E0,-9.917651176E0,-3.355933726E-1
2.076136411E0,-1.210170031E0,-9.917651176E0,-2.518445849E-1
2.078623651E0,-1.159920812E0,-9.922437668E0,-1.417747438E-1
2.081110890E0,-1.147956610E0,-9.917651176E0,-8.165507019E-2
2.083598078E0,-1.150349498E0,-9.917651176E0,-8.404789865E-2
2.086060317E0,-1.145563841E0,-9.884152412E0,-3.619144112E-2
2.088547036E0,-1.174277663E0,-9.908080101E0,-1.944168471E-2
2.091033755E0,-1.186241865E0,-9.903294563E0,-4.336991161E-2
2.093520474E0,-1.241575837E0,-9.905687332E0,-5.054837838E-2
2.096007192E0,-1.258325577E0,-9.891330719E0,-4.576273263E-2
2.098493911E0,-1.287039518E0,-9.860223770E0,-7.447660714E-2
2.100980630E0,-1.385145187E0,-9.862616539E0,-1.151545867E-1
2.103467401E0,-1.418644667E0,-9.857831001E0,-1.417747438E-1
2.105954119E0,-1.468894005E0,-9.874580383E0,-1.007976532E-1
2.108440838E0,-1.502393484E0,-9.857831001E0,-1.298106313E-1
2.110927557E0,-1.512263894E0,-9.821938515E0,-1.441675574E-1
2.113414276E0,-1.557727575E0,-9.833903313E0,-1.274178028E-1
2.115877140E0,-1.569691658E0,-9.814760208E0,-1.298106313E-1
2.118363859E0,-1.574477315E0,-9.833903313E0,-1.417747438E-1
2.120850578E0,-1.591227055E0,-9.795618057E0,-1.417747438E-1
2.123337296E0,-1.560120344E0,-9.802796364E0,-1.704886109E-1
2.125824015E0,-1.538584948E0,-9.795618057E0,-2.135594189E-1
2.128310734E0,-1.543370605E0,-9.766604424E0,-2.805584669E-1
2.130797453E0,-1.555334687E0,-9.776474953E0,-2.733799815E-1
2.133284224E0,-1.543370605E0,-9.800403595E0,-2.901297510E-1
2.135770942E0,-1.514656782E0,-9.788438797E0,-3.308077157E-1
2.138257661E0,-1.531406522E0,-9.771689415E0,-3.762713671E-1
2.140744380E0,-1.509871125E0,-9.786046028E0,-3.810569942E-1
2.143231099E0,-1.480858088E0,-9.790832520E0,-4.004986882E-1
2.145689015E0,-1.540977836E0,-9.812367439E0,-3.738785386E-1
2.148175734E0,-1.562513232E0,-9.836296082E0,-3.595215976E-1
2.150662453E0,-1.607976794E0,-9.850652695E0,-3.786641955E-1
2.153149171E0,-1.634297848E0,-9.860223770E0,-3.068794906E-1
2.155635890E0,-1.615155339E0,-9.886545181E0,-2.279163599E-1
2.158122609E0,-1.572084427E0,-9.872187614E0,-1.704886109E-1
2.160609328E0,-1.552941918E0,-9.872187614E0,-1.007976532E-1
2.163096099E0,-1.492822170E0,-9.879366875E0,-7.477570791E-3
2.165582817E0,-1.452144265E0,-9.848259926E0,5.952146277E-2
2.168069536E0,-1.447358608E0,-9.833903313E0,9.780662507E-2
2.170556255E0,-1.413859129E0,-9.809974670E0,1.384846121E-1
2.173042974E0,-1.413859129E0,-9.821938515E0,1.360917836E-1
2.175504171E0,-1.361217022E0,-9.769296646E0,1.384846121E-1
2.177990890E0,-1.349252820E0,-9.769296646E0,1.265204996E-1
2.180477609E0,-1.361217022E0,-9.761818886E0,9.062815458E-2
2.182964328E0,-1.354038477E0,-9.745069504E0,4.755735025E-2
2.185451046E0,-1.301396370E0,-9.745069504E0,2.093719784E-3
2.187937765E0,-1.313360572E0,-9.764211655E0,-4.097708687E-2
2.190424484E0,-1.275075316E0,-9.759426117E0,-8.165507019E-2
2.192911255E0,-1.313360572E0,-9.757033348E0,-1.609173268E-1
2.195397974E0,-1.282253861E0,-9.766604424E0,-2.350948304E-1
2.197884692E0,-1.255932808E0,-9.752247810E0,-2.614158690E-1
2.200371411E0,-1.301396370E0,-9.795618057E0,-3.332005441E-1
2.202858130E0,-1.282253861E0,-9.795618057E0,-3.667000830E-1
2.205322140E0,-1.282253861E0,-9.771689415E0,-3.738785386E-1
2.207808859E0,-1.332503080E0,-9.778867722E0,-4.124628007E-1
2.210295578E0,-1.327717423E0,-9.790832520E0,-4.339981973E-1
2.212782296E0,-1.315753341E0,-9.790832520E0,-3.957130313E-1
2.215269015E0,-1.318146229E0,-9.766604424E0,-3.523431420E-1
2.217755734E0,-1.263111234E0,-9.793225288E0,-2.901297510E-1
2.220242453E0,-1.234098315E0,-9.774082184E0,-2.949153781E-1
2.222729224E0,-1.214955688E0,-9.788438797E0,-2.279163599E-1
2.225215942E0,-1.181456208E0,-9.800403595E0,-1.151545867E-1
2.227702661E0,-1.143171072E0,-9.821938515E0,-2.662015148E-2
2.230189380E0,-1.128814101E0,-9.786046028E0,1.166501082E-2
2.232676099E0,-1.119242787E0,-9.778867722E0,5.234299600E-2
2.235139484E0,-1.112064362E0,-9.819545746E0,1.049850956E-1
2.237626203E0,-1.121635556E0,-9.855438232E0,1.241276711E-1
2.240112921E0,-1.183848977E0,-9.874580383E0,1.313061416E-1
2.242599640E0,-1.224527001E0,-9.872187614E0,1.603191197E-1
2.245086359E0,-1.289432287E0,-9.881759644E0,2.057827413E-1
2.247573078E0,-1.337288737E0,-9.876974106E0,2.679961324E-1
2.250059796E0,-1.332503080E0,-9.891330719E0,3.014956415E-1
2.252546567E0,-1.385145187E0,-9.845867157E0,3.517449200E-1
2.255033286E0,-1.401894927E0,-9.862616539E0,3.852444589E-1
2.257520005E0,-1.387538075E0,-9.836296082E0,3.326023519E-1
2.260006724E0,-1.444965720E0,-9.860223770E0,3.421736360E-1
2.262493442E0,-1.502393484E0,-9.855438232E0,2.727817893E-1
2.264956099E0,-1.572084427E0,-9.860223770E0,2.105683982E-1
2.267442817E0,-1.603191137E0,-9.848259926E0,1.603191197E-1
2.269929536E0,-1.624726534E0,-9.829116821E0,4.516452923E-2
2.272416255E0,-1.672582984E0,-9.845867157E0,1.405783277E-2
2.274902974E0,-1.636690736E0,-9.814760208E0,-1.226321608E-2
2.277389692E0,-1.581655741E0,-9.781260490E0,-6.011966988E-2
2.279876411E0,-1.531406522E0,-9.761818886E0,-8.644071966E-2
2.282363182E0,-1.449751377E0,-9.728319168E0,-1.274178028E-1
2.284849901E0,-1.382752419E0,-9.704391479E0,-1.561316848E-1
2.287336619E0,-1.296610713E0,-9.706784248E0,-2.422732860E-1
2.289823338E0,-1.231705427E0,-9.697213173E0,-3.188436031E-1
2.292310057E0,-1.135992527E0,-9.668498993E0,-3.690928817E-1
2.294780526E0,-1.083350420E0,-9.670891762E0,-4.746761918E-1
2.297267244E0,-1.001994491E0,-9.666106224E0,-5.847460628E-1
2.299753963E0,-9.323035479E-1,-9.644570351E0,-6.951149702E-1
2.302240682E0,-9.227322340E-1,-9.716355324E0,-7.860422134E-1
2.304727401E0,-9.251250625E-1,-9.781260490E0,-9.200403094E-1
2.307214119E0,-9.251250625E-1,-9.764211655E0,-9.993025661E-1
2.309700838E0,-9.011968374E-1,-9.786046028E0,-1.054337502E0
2.312187609E0,-8.820542693E-1,-9.817152977E0,-1.008873820E0
2.314674328E0,-8.796614408E-1,-9.824331284E0,-9.729815125E-1
2.317161046E0,-9.131609201E-1,-9.809974670E0,-9.418748021E-1
2.319647765E0,-9.179465771E-1,-9.838688850E0,-8.362914920E-1
2.322134484E0,-9.035896659E-1,-9.865009308E0,-7.621139884E-1
2.324609953E0,-9.538389444E-1,-9.879366875E0,-6.903293133E-1
2.327096671E0,-9.828519225E-1,-9.900901794E0,-5.895316601E-1
2.329583390E0,-9.924231768E-1,-9.932008743E0,-4.842474759E-1
2.332070109E0,-1.009172916E0,-9.915258408E0,-4.076771438E-1
2.334556828E0,-1.052243710E0,-9.912865639E0,-3.619144261E-1
2.337043546E0,-1.116850019E0,-9.927223206E0,-2.853440940E-1
2.339530265E0,-1.198205948E0,-9.929615974E0,-2.470589429E-1
2.342017036E0,-1.272682548E0,-9.951150894E0,-1.633101404E-1
2.344503755E0,-1.318146229E0,-9.972686768E0,-1.127617657E-1
2.346990474E0,-1.361217022E0,-9.991828918E0,-8.404789865E-2
2.349477192E0,-1.411466241E0,-9.982257843E0,-1.465603895E-2
2.351963911E0,-1.456929922E0,-9.941579819E0,-2.901297435E-2
2.354403442E0,-1.488036633E0,-9.953543663E0,-3.858426586E-2
2.356890161E0,-1.550549030E0,-9.965508461E0,-4.576273263E-2
2.359376880E0,-1.574477315E0,-9.972686768E0,-5.294119939E-2
2.361863599E0,-1.636690736E0,-9.915258408E0,-6.011966988E-2
2.364350317E0,-1.653440475E0,-9.934401512E0,-1.274178028E-1
2.366837036E0,-1.648654819E0,-9.929615974E0,-1.489532143E-1
2.369323755E0,-1.682154298E0,-9.881759644E0,-1.345962733E-1
2.371810526E0,-1.701296926E0,-9.900901794E0,-1.417747438E-1
2.374297244E0,-1.660618901E0,-9.915258408E0,-1.345962733E-1
2.376783963E0,-1.636690736E0,-9.848259926E0,-1.609173268E-1
2.379270682E0,-1.610369682E0,-9.802796364E0,-1.848455518E-1
2.381757401E0,-1.548156261E0,-9.809974670E0,-1.968096644E-1
2.384230421E0,-1.492822170E0,-9.776474953E0,-1.800599098E-1
2.386717140E0,-1.485643744E0,-9.802796364E0,-2.135594189E-1
2.389203859E0,-1.468894005E0,-9.800403595E0,-2.662015259E-1
2.391690578E0,-1.471286774E0,-9.757033348E0,-2.566302419E-1
2.394177296E0,-1.456929922E0,-9.764211655E0,-2.255235314E-1
2.396664015E0,-1.392323732E0,-9.747462273E0,-2.422732860E-1
2.399150734E0,-1.339681625E0,-9.761818886E0,-2.374876440E-1
2.401637505E0,-1.279860973E0,-9.733105659E0,-2.039881349E-1
2.404124224E0,-1.248754263E0,-9.718748093E0,-2.183450609E-1
2.406610942E0,-1.200598717E0,-9.723533630E0,-2.087737769E-1
2.409097661E0,-1.205384374E0,-9.723533630E0,-2.039881349E-1
2.411584380E0,-1.224527001E0,-9.721140862E0,-2.039881349E-1
2.414034640E0,-1.289432287E0,-9.721140862E0,-2.159522474E-1
2.416521359E0,-1.370788217E0,-9.749855042E0,-2.350948304E-1
2.419008078E0,-1.368395448E0,-9.730711937E0,-2.255235314E-1
2.421494796E0,-1.401894927E0,-9.716355324E0,-2.614158690E-1
2.423981515E0,-1.433001637E0,-9.711569786E0,-2.470589429E-1
2.426468234E0,-1.440180182E0,-9.721140862E0,-2.757728100E-1
2.428954953E0,-1.514656782E0,-9.740283966E0,-2.853440940E-1
2.431441724E0,-1.605584025E0,-9.716355324E0,-3.260220885E-1
2.433928442E0,-1.643869162E0,-9.725926399E0,-3.092723191E-1
2.436415161E0,-1.706082582E0,-9.730711937E0,-2.925225794E-1
2.438901880E0,-1.749153376E0,-9.728319168E0,-3.332005441E-1
2.441388599E0,-1.768295884E0,-9.716355324E0,-3.403790295E-1
2.443850682E0,-1.806880236E0,-9.711569786E0,-3.475574851E-1
2.446337401E0,-1.871486425E0,-9.690034866E0,-3.690928817E-1
2.448824119E0,-1.928914189E0,-9.725926399E0,-3.786641955E-1
2.451310838E0,-1.904985905E0,-9.711569786E0,-3.547359705E-1
2.453797557E0,-1.914557219E0,-9.666106224E0,-3.427718580E-1
2.456284276E0,-1.876272082E0,-9.680462837E0,-3.499503136E-1
2.458770994E0,-1.840379715E0,-9.649356842E0,-3.667000830E-1
2.461257765E0,-1.780559182E0,-9.632606506E0,-3.786641955E-1
2.463744484E0,-1.701296926E0,-9.591928482E0,-4.028915167E-1
2.466231203E0,-1.629512191E0,-9.570393562E0,-3.451646566E-1
2.468717921E0,-1.529013634E0,-9.536893845E0,-3.188436031E-1
2.471204640E0,-1.380359530E0,-9.486345291E0,-2.877369225E-1
2.473651932E0,-1.258325577E0,-9.469595909E0,-2.757728100E-1
2.476138651E0,-1.119242787E0,-9.445667267E0,-2.207378894E-1
2.478625369E0,-9.828519225E-1,-9.436096191E0,-2.422732860E-1
2.481112088E0,-8.916255236E-1,-9.397810936E0,-2.470589429E-1
2.483598807E0,-7.887341380E-1,-9.385847092E0,-2.566302419E-1
2.486085526E0,-6.711867452E-1,-9.400203705E0,-2.327020019E-1
2.488572244E0,-5.874379873E-1,-9.357132912E0,-2.303091735E-1
2.491059015E0,-5.300102234E-1,-9.326025963E0,-2.877369225E-1
2.493545734E0,-4.845465720E-1,-9.333204269E0,-3.523431420E-1
2.496032453E0,-5.252245665E-1,-9.373882294E0,-4.651049078E-1
2.498519171E0,-5.994020700E-1,-9.409774780E0,-5.321039557E-1
2.501005890E0,-7.022934556E-1,-9.455238342E0,-6.062814593E-1
2.503485526E0,-8.078767657E-1,-9.544072151E0,-6.759724021E-1
2.505972244E0,-9.442676306E-1,-9.579964638E0,-7.022934556E-1
2.508458963E0,-1.073779106E0,-9.630213737E0,-6.879364848E-1
2.510945682E0,-1.217348576E0,-9.673284531E0,-6.565307379E-1
2.513432401E0,-1.354038477E0,-9.716355324E0,-6.062814593E-1
2.515919119E0,-1.507478237E0,-9.718748093E0,-5.416752100E-1
2.518405838E0,-1.622333765E0,-9.790832520E0,-4.627120793E-1
2.520892609E0,-1.710868239E0,-9.800403595E0,-3.858426511E-1
2.523379328E0,-1.775773525E0,-9.802796364E0,-3.379862010E-1
2.525866046E0,-1.835594058E0,-9.836296082E0,-2.590230405E-1
2.528352765E0,-1.830808401E0,-9.831509590E0,-2.087737769E-1
2.530839484E0,-1.811665893E0,-9.817152977E0,-1.274178028E-1
2.533300838E0,-1.758724689E0,-9.817152977E0,-1.274178028E-1
2.535787557E0,-1.694118381E0,-9.778867722E0,-9.840483218E-2
2.538274276E0,-1.682154298E0,-9.781260490E0,-7.926224917E-2
2.540760994E0,-1.607976794E0,-9.735498428E0,-1.199402362E-1
2.543247713E0,-1.492822170E0,-9.716355324E0,-1.489532143E-1
2.545734432E0,-1.456929922E0,-9.692427635E0,-1.944168359E-1
2.548221151E0,-1.409073472E0,-9.694820404E0,-2.063809484E-1
2.550707921E0,-1.392323732E0,-9.704391479E0,-2.614158690E-1
2.553194640E0,-1.327717423E0,-9.721140862E0,-3.332005441E-1
2.555681359E0,-1.318146229E0,-9.747462273E0,-3.427718580E-1
2.558168078E0,-1.325324655E0,-9.771689415E0,-4.004986882E-1
2.560654796E0,-1.272682548E0,-9.747462273E0,-4.196412563E-1
2.563117088E0,-1.241575837E0,-9.740283966E0,-3.981058598E-1
2.565603807E0,-1.212562919E0,-9.769296646E0,-3.403790295E-1
2.568090526E0,-1.159920812E0,-9.742676735E0,-2.709871531E-1
2.570577244E0,-1.152742267E0,-9.728319168E0,-2.638086975E-1
2.573063963E0,-1.171884894E0,-9.742676735E0,-3.188436031E-1
2.575550682E0,-1.152742267E0,-9.723533630E0,-2.829512656E-1
2.578037401E0,-1.140778184E0,-9.718748093E0,-2.255235314E-1
2.580524171E0,-1.104885817E0,-9.685248375E0,-2.494517565E-1
2.583010890E0,-1.049850941E0,-9.687641144E0,-2.303091735E-1
2.585497609E0,-9.323035479E-1,-9.649356842E0,-1.513460279E-1
2.587984328E0,-8.413762450E-1,-9.599106789E0,-1.031904742E-1
2.590471046E0,-7.049853802E-1,-9.553643227E0,-1.103689447E-1
2.592934640E0,-5.970092416E-1,-9.515357971E0,-8.165507019E-2
2.595420942E0,-4.462614357E-1,-9.500701904E0,-4.815555736E-2
2.597907244E0,-2.521436810E-1,-9.500701904E0,-1.465603895E-2
2.600393546E0,-1.345962733E-1,-9.479166985E0,-8.644071966E-2
2.602879901E0,-1.734796353E-2,-9.452845573E0,-9.601201117E-2
2.605366203E0,1.360917836E-1,-9.486345291E0,-6.011966988E-2
2.607852505E0,2.509472668E-1,-9.474381447E0,-7.686942816E-2
2.610338807E0,3.155534863E-1,-9.491130829E0,-1.298106313E-1
2.612825161E0,3.684946895E-1,-9.522537231E0,-1.055833027E-1
2.615311463E0,4.187439680E-1,-9.553643227E0,-9.361918271E-2
2.617797765E0,4.091726840E-1,-9.613464355E0,-8.644071966E-2
2.620284067E0,4.929214716E-1,-9.733105659E0,1.674975902E-1
2.622749849E0,5.264210105E-1,-9.745069504E0,2.249253243E-1
2.625236151E0,4.809573591E-1,-9.735498428E0,9.062815458E-2
2.627722453E0,4.546363056E-1,-9.745069504E0,2.321037948E-1
2.630208755E0,4.187439680E-1,-9.740283966E0,1.265204996E-1
2.632695109E0,3.996013701E-1,-9.723533630E0,1.746760458E-1
2.635181411E0,3.275175989E-1,-9.704391479E0,1.408774406E-1
2.637667713E0,3.179463148E-1,-9.699605942E0,1.531406492E-1
2.640154015E0,2.988037169E-1,-9.754640579E0,1.746760458E-1
2.642640369E0,2.748754919E-1,-9.747462273E0,1.579262912E-1
2.645126671E0,2.318046987E-1,-9.769296646E0,1.483550072E-1
2.647612974E0,2.030908167E-1,-9.793225288E0,1.432702541E-1
2.650099276E0,1.719841212E-1,-9.795618057E0,1.698904037E-1
2.652569484E0,1.600200087E-1,-9.814760208E0,1.360917836E-1
2.655055786E0,1.193420291E-1,-9.838688850E0,1.507478207E-1
2.657542088E0,9.511470050E-2,-9.845867157E0,1.217348501E-1
2.660028390E0,5.204389244E-2,-9.881759644E0,8.584251255E-2
2.662514744E0,3.768695518E-2,-9.924830437E0,7.866404206E-2
2.665001046E0,-5.383851007E-3,-9.920044899E0,8.344969153E-2
2.667487349E0,-5.383851007E-3,-9.958329201E0,7.387840003E-2
2.669973651E0,-3.888336942E-2,-9.982257843E0,6.909275055E-2
2.672460005E0,-8.434699476E-2,-1.002532864E1,7.866404206E-2
2.674946307E0,-8.673982322E-2,-1.001097202E1,1.405783277E-2
2.677432609E0,-1.298106313E-1,-1.001097202E1,3.798605874E-2
2.679918911E0,-1.130608693E-1,-1.002532864E1,-2.183450572E-2
2.682382192E0,-9.391828626E-2,-1.005194855E1,-2.422732860E-2
2.684868494E0,-1.609173268E-1,-1.002293587E1,-5.084747914E-3
2.687354796E0,-2.138585299E-1,-1.004477024E1,-1.944168471E-2
2.689841099E0,-2.234298140E-1,-1.001815033E1,-3.619144112E-2
2.692327453E0,-2.090728730E-1,-9.965508461E0,-2.422732860E-2
2.694813755E0,-2.090728730E-1,-9.955936432E0,-6.729813665E-2
2.697300057E0,-1.851446480E-1,-1.000139999E1,-5.054837838E-2
2.699786359E0,-2.210369855E-1,-9.963115692E0,-7.447660714E-2
2.702272713E0,-2.234298140E-1,-9.934401512E0,-5.294119939E-2
2.704759015E0,-2.186441720E-1,-9.924830437E0,-1.007976532E-1
2.707245317E0,-2.330010980E-1,-9.898509026E0,-7.208377868E-2
2.709731619E0,-2.425723970E-1,-9.908080101E0,-9.361918271E-2
2.712199484E0,-1.875374764E-1,-9.910472870E0,-1.055833027E-1
2.714685786E0,-1.851446480E-1,-9.869794846E0,-1.127617657E-1
2.717172088E0,-2.330010980E-1,-9.833903313E0,-1.199402362E-1
2.719658390E0,-2.258226424E-1,-9.848259926E0,-1.226321608E-1
2.722144744E0,-2.066800594E-1,-9.886545181E0,-1.079761237E-1
2.724631046E0,-1.851446480E-1,-9.853045464E0,-1.298106313E-1
2.727117349E0,-2.162513435E-1,-9.848259926E0,-1.055833027E-1
2.729603651E0,-1.875374764E-1,-9.888937950E0,-1.079761237E-1
2.732090005E0,-2.162513435E-1,-9.896116257E0,-1.031904742E-1
2.734576307E0,-2.210369855E-1,-9.898509026E0,-1.007976532E-1
2.737062609E0,-2.258226424E-1,-9.922437668E0,-1.274178028E-1
2.739548911E0,-2.521436810E-1,-9.932008743E0,-1.031904742E-1
2.742013911E0,-2.330010980E-1,-9.948758125E0,-1.103689447E-1
2.744500213E0,-3.047857881E-1,-9.955936432E0,-1.079761237E-1
2.746986515E0,-2.976073027E-1,-9.965508461E0,-1.079761237E-1
2.749472817E0,-3.071786165E-1,-9.955936432E0,-9.840483218E-2
2.751959171E0,-2.952145040E-1,-9.970293999E0,-7.447660714E-2
2.754445474E0,-3.358924687E-1,-9.977472305E0,-8.644071966E-2
2.756931776E0,-3.526422381E-1,-9.975079536E0,-8.404789865E-2
2.759418078E0,-3.933202326E-1,-1.000857925E1,-7.926224917E-2
2.761904432E0,-3.885345757E-1,-9.965508461E0,-9.601201117E-2
2.764390734E0,-3.717848063E-1,-9.965508461E0,-9.840483218E-2
2.766877036E0,-4.124628007E-1,-1.000857925E1,-7.208377868E-2
2.769363338E0,-4.292125702E-1,-9.991828918E0,-8.883354068E-2
2.771829796E0,-4.654040039E-1,-1.002054310E1,-7.208377868E-2
2.774316099E0,-4.845465720E-1,-1.001097202E1,-7.926224917E-2
2.776802401E0,-4.965106845E-1,-1.002532864E1,-6.729813665E-2
2.779288703E0,-4.869394004E-1,-1.005434132E1,-3.619144112E-2
2.781775057E0,-4.677968323E-1,-1.002532864E1,-4.815555736E-2
2.784261359E0,-5.012963414E-1,-1.008305550E1,-3.140579537E-2
2.786747661E0,-5.084748268E-1,-1.005912685E1,-5.054837838E-2
2.789233963E0,-5.156532526E-1,-1.010219765E1,-3.858426586E-2
2.791720317E0,-4.965106845E-1,-1.014048290E1,-7.447660714E-2
2.794206619E0,-5.012963414E-1,-1.014287567E1,-4.336991161E-2
2.796692921E0,-4.821537733E-1,-1.014526844E1,-5.772684515E-2
2.799179224E0,-4.725824594E-1,-1.017876816E1,-4.097708687E-2
2.801662609E0,-4.773681164E-1,-1.018594646E1,-1.944168471E-2
2.804148911E0,-4.654040039E-1,-1.017398262E1,-2.662015148E-2
2.806635213E0,-4.172484577E-1,-1.016680431E1,-4.336991161E-2
2.809121515E0,-3.981058598E-1,-1.017637539E1,-2.183450572E-2
2.811607869E0,-3.550350666E-1,-1.015962601E1,-7.477570791E-3
2.814094171E0,-3.478565812E-1,-1.015484047E1,-5.084747914E-3
2.816580474E0,-3.622135222E-1,-1.010219765E1,-4.336991161E-2
2.819066776E0,-2.904288471E-1,-1.008784103E1,-3.619144112E-2
2.821553130E0,-2.760719061E-1,-1.004477024E1,-7.477570791E-3
2.824039432E0,-2.569293380E-1,-1.002772141E1,-1.704886183E-2
2.826525734E0,-2.066800594E-1,-9.994221687E0,-2.662015148E-2
2.829012036E0,-1.513460279E-1,-9.989436150E0,-2.691925503E-3
2.831462765E0,-1.489532143E-1,-9.958329201E0,-1.704886183E-2
2.833949067E0,-1.345962733E-1,-9.946365356E0,-9.870393202E-3
2.836435369E0,-7.477571070E-2,-9.951150894E0,-2.422732860E-2
2.838921671E0,-1.974078640E-2,-9.898509026E0,1.645065658E-2
2.841408026E0,1.615155302E-2,-9.888937950E0,2.093719784E-3
2.843894328E0,4.965107143E-2,-9.865009308E0,2.093719784E-3
2.846380630E0,5.682953820E-2,-9.809974670E0,-9.870393202E-3
2.848866932E0,1.217348501E-1,-9.795618057E0,4.486542661E-3
2.851353286E0,1.791625917E-1,-9.793225288E0,2.093719784E-3
2.853839588E0,1.959123611E-1,-9.786046028E0,1.166501082E-2
2.856325890E0,1.959123611E-1,-9.766604424E0,2.362912335E-2
2.858812192E0,2.389831543E-1,-9.774082184E0,8.584251255E-2
2.861280161E0,2.844468057E-1,-9.749855042E0,4.995017126E-2
2.863766463E0,3.131606579E-1,-9.769296646E0,6.191428751E-2
2.866252765E0,3.299104273E-1,-9.740283966E0,2.602194622E-2
2.868739067E0,3.179463148E-1,-9.733105659E0,2.602194622E-2
2.871225421E0,3.514458239E-1,-9.690034866E0,7.866404206E-2
2.873711724E0,3.924229145E-1,-9.666106224E0,1.001994461E-1
2.876198026E0,4.043870270E-1,-9.654142380E0,6.669992954E-2
2.878684380E0,3.900300860E-1,-9.673284531E0,1.073779166E-1
2.881170682E0,4.211367965E-1,-9.678070068E0,1.025922745E-1
2.883656984E0,4.378865361E-1,-9.639784813E0,1.217348501E-1
2.886143286E0,4.163511395E-1,-9.596714020E0,1.456630826E-1
2.888629588E0,4.354937077E-1,-9.627820969E0,1.408774406E-1
2.891096828E0,4.618147612E-1,-9.618249893E0,1.217348501E-1
2.893583130E0,4.331009090E-1,-9.570393562E0,1.674975902E-1
2.896069432E0,4.019941986E-1,-9.587142944E0,1.289133132E-1
2.898555734E0,3.876372576E-1,-9.603892326E0,1.289133132E-1
2.901042088E0,4.115654826E-1,-9.529715538E0,1.336989701E-1
2.903528390E0,4.043870270E-1,-9.534501076E0,1.145563871E-1
2.906014692E0,3.490529954E-1,-9.560821533E0,1.121635586E-1
2.908500994E0,3.275175989E-1,-9.556035995E0,1.483550072E-1
2.910987349E0,3.227319419E-1,-9.599106789E0,1.770688742E-1
2.913473651E0,2.988037169E-1,-9.613464355E0,1.603191197E-1
2.915959953E0,2.892324328E-1,-9.599106789E0,1.432702541E-1
2.918446307E0,2.844468057E-1,-9.606286049E0,1.265204996E-1
2.920911515E0,2.700898647E-1,-9.644570351E0,1.336989701E-1
2.923397765E0,1.983051747E-1,-9.692427635E0,1.794617027E-1
2.925884119E0,2.126621157E-1,-9.704391479E0,1.289133132E-1
2.928370421E0,1.983051747E-1,-9.728319168E0,1.097707376E-1
2.930856776E0,1.552343667E-1,-9.718748093E0,1.384846121E-1
2.933343078E0,1.695913076E-1,-9.742676735E0,1.169492081E-1
2.935829380E0,1.887338907E-1,-9.771689415E0,1.025922745E-1
2.938315682E0,1.336989701E-1,-9.764211655E0,8.105687052E-2
2.940802036E0,9.272187948E-2,-9.749855042E0,7.627122104E-2
2.943288338E0,7.836493850E-2,-9.790832520E0,8.344969153E-2
2.945774640E0,6.879365444E-2,-9.821938515E0,7.866404206E-2
2.948260942E0,4.486542568E-2,-9.838688850E0,7.148557901E-2
2.950728442E0,2.572284266E-2,-9.865009308E0,5.234299600E-2
2.953214744E0,1.136590727E-2,-9.888937950E0,7.148557901E-2
2.955701046E0,6.580262445E-3,-9.903294563E0,1.645065658E-2
2.958187349E0,-7.776673418E-3,-9.924830437E0,2.362912335E-2
2.960673703E0,-1.256231871E-2,-9.967901230E0,2.123630047E-2
2.963160005E0,-3.170489892E-2,-9.943972588E0,9.272187948E-3
2.965646307E0,-5.563312769E-2,-9.967901230E0,-1.465603895E-2
2.968132609E0,-6.999006122E-2,-9.958329201E0,-5.294119939E-2
2.970618963E0,-6.520441920E-2,-9.999007225E0,-3.858426586E-2
2.973105265E0,-9.391828626E-2,-9.994221687E0,-4.336991161E-2
2.975591567E0,-1.441675574E-1,-9.996614456E0,-7.447660714E-2
2.978077869E0,-8.673982322E-2,-1.002772141E1,-6.969095767E-2
2.980544901E0,-1.130608693E-1,-1.005194855E1,-3.858426586E-2
2.983031203E0,-1.369891018E-1,-1.006391335E1,-5.772684515E-2
2.985517505E0,-1.250249892E-1,-1.012851906E1,-6.729813665E-2
2.988003807E0,-1.609173268E-1,-1.014766216E1,-9.840483218E-2
2.990490161E0,-1.441675574E-1,-1.012612629E1,-1.055833027E-1
2.992976463E0,-1.657029688E-1,-1.015005493E1,-8.883354068E-2
2.995462765E0,-1.585244983E-1,-1.015484047E1,-1.151545867E-1
2.997949067E0,-1.779661775E-1,-1.015484047E1,-8.883354068E-2
3.000435421E0,-1.609173268E-1,-1.017158985E1,-1.079761237E-1
3.002921724E0,-1.369891018E-1,-1.015723324E1,-1.103689447E-1
3.005408026E0,-1.585244983E-1,-1.020030403E1,-1.226321608E-1
3.007894328E0,-1.803590059E-1,-1.018834019E1,-1.175474152E-1
3.010361828E0,-1.803590059E-1,-1.018834019E1,-1.513460279E-1
3.012848130E0,-2.042872310E-1,-1.017637539E1,-1.226321608E-1
3.015334432E0,-1.947159469E-1,-1.021944618E1,-1.322034448E-1
3.017820734E0,-2.330010980E-1,-1.020748234E1,-9.122636169E-2
3.020307088E0,-2.186441720E-1,-1.020269680E1,-7.686942816E-2
3.022793390E0,-2.401795685E-1,-1.021944618E1,-8.883354068E-2
3.025279692E0,-2.832503915E-1,-1.023858929E1,-9.840483218E-2
3.027765994E0,-2.928216755E-1,-1.023858929E1,-1.007976532E-1
3.030252349E0,-2.976073027E-1,-1.024576759E1,-4.815555736E-2
3.032738651E0,-2.832503915E-1,-1.026730251E1,-7.686942816E-2
3.035224953E0,-3.526422381E-1,-1.026012421E1,-6.251249462E-2
3.037711307E0,-3.837489188E-1,-1.026730251E1,-7.926224917E-2
3.040176671E0,-3.981058598E-1,-1.030827999E1,-5.533402413E-2
3.042662974E0,-4.220340848E-1,-1.032981491E1,-4.097708687E-2
3.045149276E0,-3.957130313E-1,-1.032742214E1,-5.294119939E-2
3.047635578E0,-4.366901219E-1,-1.034656525E1,-6.729813665E-2
3.050121932E0,-4.510470629E-1,-1.030827999E1,-3.619144112E-2
3.052608234E0,-4.582255483E-1,-1.033699417E1,-5.772684515E-2
3.055094536E0,-4.677968323E-1,-1.036092186E1,-6.251249462E-2
3.057580838E0,-4.845465720E-1,-1.035852909E1,-1.465603895E-2
3.060067192E0,-5.012963414E-1,-1.033938694E1,-3.379862010E-2
3.062553494E0,-4.917250574E-1,-1.038485050E1,-4.576273263E-2
3.065039796E0,-4.917250574E-1,-1.039202881E1,-3.858426586E-2
3.067526099E0,-5.300102234E-1,-1.038006496E1,-3.140579537E-2
3.069996932E0,-5.060819983E-1,-1.039442158E1,-1.465603895E-2
3.072483234E0,-5.395814776E-1,-1.040159988E1,-5.294119939E-2
3.074969536E0,-5.276173949E-1,-1.039202881E1,-2.422732860E-2
3.077455838E0,-5.156532526E-1,-1.045902824E1,-2.662015148E-2
3.079942192E0,-5.300102234E-1,-1.043509960E1,-2.662015148E-2
3.082428494E0,-5.252245665E-1,-1.039681435E1,-1.465603895E-2
3.084914796E0,-4.749752879E-1,-1.035135078E1,-9.870393202E-3
3.087401099E0,-4.701896608E-1,-1.038485050E1,-2.183450572E-2
3.089887453E0,-4.630111754E-1,-1.038006496E1,-5.084747914E-3
3.092373755E0,-4.438686073E-1,-1.034895802E1,-2.183450572E-2
3.094860057E0,-4.414757788E-1,-1.032742214E1,1.645065658E-2
3.097346359E0,-4.292125702E-1,-1.030319500E1,4.486542661E-3
3.099808755E0,-4.196412563E-1,-1.030080223E1,1.645065658E-2
3.102294744E0,-3.646063507E-1,-1.033220863E1,1.405783277E-2
3.104780734E0,-3.358924687E-1,-1.032742214E1,-2.901297435E-2
3.107266724E0,-2.976073027E-1,-1.030827999E1,-2.691925503E-3
3.109752713E0,-3.047857881E-1,-1.029840946E1,2.602194622E-2
3.112238703E0,-2.784647346E-1,-1.028405285E1,4.486542661E-3
3.114724640E0,-2.425723970E-1,-1.030319500E1,-2.691925503E-3
3.117210630E0,-1.899302900E-1,-1.031306553E1,-2.691925503E-3
3.119696619E0,-1.683948934E-1,-1.028405285E1,2.602194622E-2
3.122182661E0,-1.250249892E-1,-1.025533867E1,4.516452923E-2
3.124668599E0,-1.250249892E-1,-1.025773144E1,3.080759197E-2
3.127154588E0,-7.238288224E-2,-1.026251698E1,5.234299600E-2
3.129627817E0,-6.520441920E-2,-1.021466064E1,2.841476910E-2
3.132113807E0,-1.495514158E-2,-1.022662449E1,1.405783277E-2
3.134599796E0,3.290131316E-2,-1.022183895E1,4.277170449E-2
3.137085786E0,7.357929647E-2,-1.019551849E1,3.798605874E-2
3.139571776E0,1.193420291E-1,-1.017398262E1,5.712864175E-2
3.142057765E0,8.793623000E-2,-1.013809013E1,7.866404206E-2
3.144543755E0,1.169492081E-1,-1.011416245E1,6.430710852E-2
3.147029692E0,1.815554202E-1,-1.009501934E1,4.037888348E-2
3.149515682E0,1.743769497E-1,-1.008784103E1,6.191428751E-2
3.152001671E0,1.887338907E-1,-1.007109165E1,6.909275055E-2
3.154487661E0,2.198405862E-1,-1.001575756E1,7.148557901E-2
3.156973651E0,2.605185509E-1,-1.003011417E1,9.541380405E-2
3.159442192E0,2.557329237E-1,-1.004955578E1,1.025922745E-1
3.161928182E0,2.533400953E-1,-1.000139999E1,7.627122104E-2
3.164414171E0,2.868396044E-1,-9.987043381E0,6.669992954E-2
3.166900161E0,2.700898647E-1,-9.970293999E0,6.191428751E-2
3.169386151E0,2.748754919E-1,-9.948758125E0,1.097707376E-1
3.171872140E0,3.011965454E-1,-9.955936432E0,1.049850956E-1
3.174358078E0,2.940180898E-1,-9.970293999E0,7.387840003E-2
3.176844067E0,2.940180898E-1,-9.991828918E0,6.430710852E-2
3.179330057E0,2.653042078E-1,-9.977472305E0,1.049850956E-1
3.181816046E0,2.653042078E-1,-9.979865074E0,1.001994461E-1
3.184302036E0,2.676970363E-1,-1.001336479E1,1.265204996E-1
3.186788026E0,2.461616248E-1,-1.002293587E1,1.483550072E-1
3.189279432E0,2.437688112E-1,-1.006869888E1,1.073779166E-1
3.191765421E0,2.318046987E-1,-1.008066273E1,1.193420291E-1
3.194251411E0,1.959123611E-1,-1.008784103E1,1.001994461E-1
3.196737401E0,2.054836452E-1,-1.010937691E1,9.062815458E-2
3.199223390E0,1.959123611E-1,-1.010937691E1,1.432702541E-1
3.201709380E0,1.743769497E-1,-1.009262657E1,1.456630826E-1
3.204195317E0,1.528415531E-1,-1.010219765E1,1.049850956E-1
3.206681307E0,1.336989701E-1,-1.010698414E1,8.344969153E-2
3.209167296E0,1.265204996E-1,-1.011416245E1,9.062815458E-2
3.211653286E0,1.265204996E-1,-1.009501934E1,7.866404206E-2
3.214139276E0,1.145563871E-1,-1.010937691E1,1.049850956E-1
3.216625265E0,9.750752151E-2,-1.013569736E1,7.627122104E-2
3.219076567E0,4.247260094E-2,-1.014766216E1,6.191428751E-2
3.221562557E0,3.290131316E-2,-1.014048290E1,5.234299600E-2
3.224048546E0,3.529413417E-2,-1.012134075E1,6.669992954E-2
3.226534536E0,4.007977992E-2,-1.012612629E1,5.952146277E-2
3.229020526E0,8.973085321E-3,-1.014048290E1,6.191428751E-2
3.231506515E0,-2.452643216E-2,-1.014766216E1,3.080759197E-2
3.233992453E0,-1.256231871E-2,-1.013809013E1,3.320041299E-2
3.236478442E0,-5.563312769E-2,-1.015005493E1,4.755735025E-2
3.238964432E0,-8.673982322E-2,-1.017398262E1,-1.226321608E-2
3.241450421E0,-7.477571070E-2,-1.015723324E1,-2.662015148E-2
3.243936411E0,-7.477571070E-2,-1.016680431E1,3.080759197E-2
3.246422401E0,-1.298106313E-1,-1.016201878E1,-5.084747914E-3
3.248868859E0,-9.870393574E-2,-1.018594646E1,-4.336991161E-2
3.251354849E0,-9.391828626E-2,-1.020030403E1,-4.576273263E-2
3.253840838E0,-9.152546525E-2,-1.015723324E1,-5.772684515E-2
3.256326828E0,-1.441675574E-1,-1.013809013E1,-2.662015148E-2
3.258812817E0,-1.322034448E-1,-1.017158985E1,-4.815555736E-2
3.261298807E0,-1.322034448E-1,-1.016441154E1,-6.251249462E-2
3.263784744E0,-1.465603858E-1,-1.013569736E1,-5.772684515E-2
3.266270734E0,-1.731805354E-1,-1.011894798E1,-6.969095767E-2
3.268756724E0,-1.779661775E-1,-1.013330460E1,-8.404789865E-2
3.271242713E0,-1.947159469E-1,-1.013809013E1,-6.251249462E-2
3.273728703E0,-1.755733639E-1,-1.013569736E1,-7.447660714E-2
3.276214692E0,-1.827518344E-1,-1.011176968E1,-8.644071966E-2
3.278719015E0,-1.947159469E-1,-1.012612629E1,-9.122636169E-2
3.281205005E0,-2.066800594E-1,-1.011894798E1,-9.122636169E-2
3.283690994E0,-2.066800594E-1,-1.012134075E1,-9.840483218E-2
3.286176984E0,-2.306082845E-1,-1.010459137E1,-8.883354068E-2
3.288662974E0,-2.425723970E-1,-1.009980488E1,-1.226321608E-1
3.291148963E0,-2.234298140E-1,-1.008066273E1,-1.055833027E-1
3.293634901E0,-2.473580390E-1,-1.009262657E1,-7.686942816E-2
3.296120890E0,-2.425723970E-1,-1.004477024E1,-5.294119939E-2
3.298606880E0,-2.617149651E-1,-1.003759193E1,-7.208377868E-2
3.301092869E0,-2.760719061E-1,-1.006152058E1,-6.011966988E-2
3.303578859E0,-2.760719061E-1,-1.006869888E1,-7.447660714E-2
3.306064849E0,-2.856431901E-1,-1.005912685E1,-4.336991161E-2
3.308524796E0,-3.167499006E-1,-1.003489971E1,-8.404789865E-2
3.311010786E0,-3.143570721E-1,-1.003489971E1,-7.447660714E-2
3.313496776E0,-3.430709541E-1,-1.005434132E1,-4.336991161E-2
3.315982765E0,-3.311068416E-1,-1.003489971E1,-6.251249462E-2
3.318468755E0,-3.550350666E-1,-1.005434132E1,-4.097708687E-2
3.320954744E0,-3.741776347E-1,-1.007348442E1,-5.054837838E-2
3.323440682E0,-3.454637825E-1,-1.008544827E1,-7.477570791E-3
3.325926671E0,-4.244269133E-1,-1.009741211E1,-1.465603895E-2
3.328412661E0,-4.390829504E-1,-1.008544827E1,-5.084747914E-3
3.330898651E0,-4.172484577E-1,-1.004716301E1,9.272187948E-3
3.333384640E0,-4.677968323E-1,-1.010937691E1,-5.084747914E-3
3.335870630E0,-4.339981973E-1,-1.013330460E1,-2.991028305E-4
3.338343442E0,-4.462614357E-1,-1.014526844E1,1.645065658E-2
3.340829432E0,-4.821537733E-1,-1.011655521E1,1.166501082E-2
3.343315421E0,-4.773681164E-1,-1.011655521E1,2.123630047E-2
3.345801411E0,-4.654040039E-1,-1.019312572E1,2.362912335E-2
3.348287401E0,-4.845465720E-1,-1.013809013E1,1.405783277E-2
3.350773390E0,-4.797609448E-1,-1.015244770E1,1.884347759E-2
3.353259328E0,-4.989035130E-1,-1.015723324E1,4.995017126E-2
3.355745317E0,-4.917250574E-1,-1.013330460E1,3.798605874E-2
3.358231307E0,-4.941178858E-1,-1.015484047E1,5.234299600E-2
3.360717349E0,-4.965106845E-1,-1.015723324E1,5.473581702E-2
3.363203338E0,-4.845465720E-1,-1.013809013E1,6.879365072E-3
3.365689276E0,-4.845465720E-1,-1.013330460E1,3.798605874E-2
3.368158859E0,-4.654040039E-1,-1.010219765E1,5.473581702E-2
3.370644849E0,-4.558327198E-1,-1.008305550E1,2.841476910E-2
3.373130838E0,-4.582255483E-1,-1.007826996E1,6.430710852E-2
3.375616828E0,-4.292125702E-1,-1.004955578E1,8.344969153E-2
3.378102817E0,-4.124628007E-1,-1.002054310E1,6.430710852E-2
3.380588807E0,-3.837489188E-1,-1.001097202E1,7.866404206E-2
3.383074744E0,-3.430709541E-1,-9.996614456E0,4.516452923E-2
3.385560734E0,-3.287140131E-1,-9.977472305E0,6.430710852E-2
3.388046724E0,-3.478565812E-1,-9.922437668E0,7.627122104E-2
3.390532765E0,-3.239283562E-1,-9.929615974E0,5.952146277E-2
3.393018703E0,-2.736790776E-1,-9.939187050E0,6.909275055E-2
3.395504692E0,-2.545365095E-1,-9.963115692E0,6.191428751E-2
3.397998911E0,-2.617149651E-1,-9.927223206E0,7.866404206E-2
3.400484901E0,-2.545365095E-1,-9.912865639E0,5.712864175E-2
3.402970890E0,-1.803590059E-1,-9.905687332E0,9.062815458E-2
3.405456880E0,-1.683948934E-1,-9.896116257E0,6.669992954E-2
3.407942869E0,-1.393819153E-1,-9.872187614E0,6.430710852E-2
3.410428859E0,-1.130608693E-1,-9.908080101E0,5.712864175E-2
3.412914796E0,-8.913264424E-2,-9.881759644E0,6.430710852E-2
3.415400786E0,-7.238288224E-2,-9.843474388E0,8.823533356E-2
3.417886776E0,-1.974078640E-2,-9.874580383E0,6.430710852E-2
3.420372765E0,-3.649054468E-2,-9.848259926E0,6.669992954E-2
3.422858807E0,-1.974078640E-2,-9.855438232E0,5.234299600E-2
3.425344744E0,4.247260094E-2,-9.805189133E0,7.627122104E-2
3.427803182E0,5.204389244E-2,-9.786046028E0,5.712864175E-2
3.430289171E0,6.640082598E-2,-9.781260490E0,7.148557901E-2
3.432775161E0,8.075776696E-2,-9.752247810E0,6.191428751E-2
3.435261151E0,9.750752151E-2,-9.776474953E0,5.952146277E-2
3.437747140E0,1.456630826E-1,-9.757033348E0,7.387840003E-2
3.440233130E0,1.432702541E-1,-9.759426117E0,7.627122104E-2
3.442719067E0,1.049850956E-1,-9.730711937E0,7.866404206E-2
3.445205057E0,1.456630826E-1,-9.713962555E0,4.037888348E-2
3.447691046E0,1.480558962E-1,-9.706784248E0,6.909275055E-2
3.450177036E0,1.600200087E-1,-9.709177017E0,5.952146277E-2
3.452663026E0,1.815554202E-1,-9.685248375E0,6.430710852E-2
3.455149015E0,1.839482337E-1,-9.675677299E0,7.387840003E-2
3.457619744E0,1.624128371E-1,-9.673284531E0,8.344969153E-2
3.460105734E0,1.791625917E-1,-9.690034866E0,8.344969153E-2
3.462591724E0,1.671984792E-1,-9.699605942E0,1.121635586E-1
3.465077713E0,1.791625917E-1,-9.685248375E0,8.344969153E-2
3.467563703E0,1.528415531E-1,-9.685248375E0,8.344969153E-2
3.470049692E0,1.456630826E-1,-9.694820404E0,9.541380405E-2
3.472535630E0,1.408774406E-1,-9.754640579E0,1.169492081E-1
3.475021619E0,1.504487246E-1,-9.769296646E0,9.541380405E-2
3.477507609E0,1.408774406E-1,-9.759426117E0,7.627122104E-2
3.479993599E0,1.097707376E-1,-9.783653259E0,9.780662507E-2
3.482479588E0,6.400800496E-2,-9.819545746E0,1.169492081E-1
3.484965578E0,9.272187948E-2,-9.845867157E0,6.191428751E-2
3.487447869E0,7.597211748E-2,-9.809974670E0,9.541380405E-2
3.489933859E0,5.682953820E-2,-9.809974670E0,7.627122104E-2
3.492419849E0,6.161518395E-2,-9.850652695E0,7.387840003E-2
3.494905838E0,3.768695518E-2,-9.872187614E0,6.909275055E-2
3.497391828E0,4.007977992E-2,-9.845867157E0,6.669992954E-2
3.499877817E0,2.093719877E-2,-9.841081619E0,3.798605874E-2
3.502363755E0,-5.383851007E-3,-9.845867157E0,7.148557901E-2
3.504849744E0,1.375873014E-2,-9.874580383E0,8.105687052E-2
3.507335734E0,-1.495514158E-2,-9.824331284E0,6.669992954E-2
3.509821724E0,-4.366901144E-2,-9.838688850E0,6.909275055E-2
3.512307713E0,-4.606183618E-2,-9.853045464E0,5.473581702E-2
3.514793703E0,-4.606183618E-2,-9.860223770E0,3.559323773E-2
3.517240942E0,-5.324030295E-2,-9.862616539E0,4.995017126E-2
3.519726932E0,-7.956135273E-2,-9.881759644E0,3.559323773E-2
3.522212921E0,-7.956135273E-2,-9.872187614E0,1.645065658E-2
3.524698911E0,-1.178465188E-1,-9.872187614E0,4.755735025E-2
3.527184901E0,-1.010967568E-1,-9.855438232E0,3.320041299E-2
3.529670890E0,-1.202393398E-1,-9.874580383E0,4.037888348E-2
3.532156828E0,-1.202393398E-1,-9.879366875E0,6.879365072E-3
3.534642817E0,-1.322034448E-1,-9.874580383E0,9.272187948E-3
3.537128807E0,-1.513460279E-1,-9.872187614E0,2.123630047E-2
3.539614796E0,-1.633101404E-1,-9.905687332E0,-2.991028305E-4
3.542100786E0,-1.995015889E-1,-9.869794846E0,-5.084747914E-3
3.544586776E0,-2.042872310E-1,-9.922437668E0,2.093719784E-3
3.547054953E0,-1.755733639E-1,-9.920044899E0,-5.294119939E-2
3.549540942E0,-1.971087605E-1,-9.910472870E0,-1.465603895E-2
3.552026932E0,-1.995015889E-1,-9.927223206E0,-2.691925503E-3
3.554512921E0,-2.018944174E-1,-9.932008743E0,-3.858426586E-2
3.556998911E0,-2.186441720E-1,-9.924830437E0,-3.619144112E-2
3.559484901E0,-1.947159469E-1,-9.879366875E0,-4.576273263E-2
3.561970838E0,-2.066800594E-1,-9.903294563E0,-3.619144112E-2
3.564456828E0,-2.712862790E-1,-9.903294563E0,-2.662015148E-2
3.566942817E0,-2.473580390E-1,-9.900901794E0,-4.097708687E-2
3.569428807E0,-2.473580390E-1,-9.876974106E0,-4.097708687E-2
3.571914796E0,-2.258226424E-1,-9.905687332E0,-3.858426586E-2
3.574400786E0,-2.760719061E-1,-9.886545181E0,-4.336991161E-2
3.576871567E0,-2.473580390E-1,-9.879366875E0,-6.011966988E-2
3.579357557E0,-3.047857881E-1,-9.898509026E0,-2.901297435E-2
3.581843546E0,-3.000001311E-1,-9.886545181E0,-3.379862010E-2
3.584329536E0,-2.832503915E-1,-9.857831001E0,-5.294119939E-2
3.586815526E0,-2.784647346E-1,-9.888937950E0,-2.422732860E-2
3.589301515E0,-3.167499006E-1,-9.900901794E0,-7.208377868E-2
3.591787453E0,-3.430709541E-1,-9.905687332E0,-4.336991161E-2
3.594273442E0,-3.119642437E-1,-9.922437668E0,-3.619144112E-2
3.596759432E0,-3.454637825E-1,-9.905687332E0,-2.901297435E-2
3.599245421E0,-3.598206937E-1,-9.905687332E0,2.093719784E-3
3.601731411E0,-3.598206937E-1,-9.908080101E0,-2.691925503E-3
3.604217401E0,-3.837489188E-1,-9.905687332E0,-5.084747914E-3
3.606686724E0,-4.124628007E-1,-9.934401512E0,2.093719784E-3
3.609172453E0,-3.981058598E-1,-9.917651176E0,-2.691925503E-3
3.611658182E0,-4.076771438E-1,-9.929615974E0,6.191428751E-2
3.614143911E0,-4.268197417E-1,-9.884152412E0,5.234299600E-2
3.616629640E0,-4.268197417E-1,-9.900901794E0,1.405783277E-2
3.619115369E0,-4.268197417E-1,-9.922437668E0,3.559323773E-2
3.621601099E0,-4.244269133E-1,-9.903294563E0,4.277170449E-2
3.624086828E0,-4.558327198E-1,-9.905687332E0,5.473581702E-2
3.626572557E0,-4.486542344E-1,-9.910472870E0,3.559323773E-2
3.629058286E0,-4.390829504E-1,-9.939187050E0,6.191428751E-2
3.631544015E0,-4.366901219E-1,-9.903294563E0,6.430710852E-2
3.634029744E0,-4.292125702E-1,-9.912865639E0,6.909275055E-2
3.636506619E0,-4.339981973E-1,-9.915258408E0,5.473581702E-2
3.638992349E0,-4.462614357E-1,-9.941579819E0,5.712864175E-2
3.641478078E0,-4.244269133E-1,-9.927223206E0,1.145563871E-1
3.643963807E0,-4.316053987E-1,-9.941579819E0,8.823533356E-2
3.646449536E0,-4.390829504E-1,-9.951150894E0,7.866404206E-2
3.648935265E0,-4.438686073E-1,-9.960722923E0,1.193420291E-1
3.651420994E0,-4.390829504E-1,-9.970293999E0,9.302098304E-2
3.653906724E0,-3.837489188E-1,-9.955936432E0,9.541380405E-2
3.656392453E0,-3.765704632E-1,-9.955936432E0,9.541380405E-2
3.658878182E0,-3.957130313E-1,-9.967901230E0,9.302098304E-2
3.661363911E0,-3.646063507E-1,-9.967901230E0,1.049850956E-1
3.663849640E0,-3.622135222E-1,-9.936794281E0,1.049850956E-1
3.666320630E0,-3.406781256E-1,-9.941579819E0,1.073779166E-1
3.668806359E0,-3.550350666E-1,-9.941579819E0,8.823533356E-2
3.671292088E0,-3.191427290E-1,-9.934401512E0,1.049850956E-1
3.673777817E0,-3.239283562E-1,-9.903294563E0,1.217348501E-1
3.676263546E0,-2.832503915E-1,-9.891330719E0,8.823533356E-2
3.678749276E0,-2.545365095E-1,-9.876974106E0,8.584251255E-2
3.681235005E0,-2.377867550E-1,-9.869794846E0,1.145563871E-1
3.683720734E0,-2.330010980E-1,-9.869794846E0,1.049850956E-1
3.686206463E0,-1.947159469E-1,-9.865009308E0,1.217348501E-1
3.688692192E0,-2.042872310E-1,-9.881759644E0,1.241276711E-1
3.691177921E0,-2.114657015E-1,-9.865009308E0,1.073779166E-1
3.693663703E0,-1.513460279E-1,-9.876974106E0,1.121635586E-1
3.696122244E0,-1.393819153E-1,-9.881759644E0,1.001994461E-1
3.698607974E0,-1.417747438E-1,-9.908080101E0,7.866404206E-2
3.701093703E0,-1.274178028E-1,-9.912865639E0,9.541380405E-2
3.703579432E0,-9.391828626E-2,-9.910472870E0,9.780662507E-2
3.706065161E0,-6.999006122E-2,-9.888937950E0,7.866404206E-2
3.708550890E0,-7.238288224E-2,-9.898509026E0,9.302098304E-2
3.711036619E0,-3.409772366E-2,-9.908080101E0,9.062815458E-2
3.713522349E0,-1.256231871E-2,-9.888937950E0,1.313061416E-1
3.716008078E0,-1.256231871E-2,-9.881759644E0,1.001994461E-1
3.718493807E0,2.333002165E-2,-9.886545181E0,9.302098304E-2
3.720979536E0,1.136590727E-2,-9.872187614E0,6.909275055E-2
3.723465265E0,4.725824669E-2,-9.896116257E0,8.584251255E-2
3.725954328E0,4.486542568E-2,-9.888937950E0,1.456630826E-1
3.728440057E0,6.161518395E-2,-9.934401512E0,9.541380405E-2
3.730925786E0,2.811566554E-2,-9.932008743E0,7.148557901E-2
3.733411515E0,6.640082598E-2,-9.920044899E0,7.148557901E-2
3.735897244E0,7.836493850E-2,-9.934401512E0,1.001994461E-1
3.738382974E0,4.725824669E-2,-9.932008743E0,8.823533356E-2
3.740868703E0,6.879365444E-2,-9.927223206E0,8.584251255E-2
3.743354432E0,5.922235921E-2,-9.915258408E0,8.344969153E-2
3.745840161E0,5.682953820E-2,-9.905687332E0,9.541380405E-2
3.748325890E0,4.247260094E-2,-9.922437668E0,7.148557901E-2
3.750811619E0,1.854437590E-2,-9.920044899E0,9.302098304E-2
3.753297349E0,2.093719877E-2,-9.934401512E0,8.105687052E-2
3.755769171E0,-2.991028363E-3,-9.908080101E0,8.344969153E-2
3.758254901E0,3.529413417E-2,-9.915258408E0,9.541380405E-2
3.760740630E0,4.247260094E-2,-9.943972588E0,9.302098304E-2
3.763226359E0,2.093719877E-2,-9.943972588E0,5.952146277E-2
3.765712088E0,1.375873014E-2,-9.932008743E0,7.627122104E-2
3.768197817E0,1.615155302E-2,-9.941579819E0,6.430710852E-2
3.770683546E0,1.136590727E-2,-9.948758125E0,9.302098304E-2
3.773169276E0,8.973085321E-3,-9.934401512E0,6.430710852E-2
3.775655005E0,-2.991028363E-3,-9.960722923E0,1.025922745E-1
3.778140734E0,1.794616925E-3,-9.932008743E0,6.669992954E-2
3.780626463E0,-1.495514158E-2,-9.929615974E0,4.277170449E-2
3.783112192E0,4.187439568E-3,-9.953543663E0,7.148557901E-2
3.785585109E0,-3.888336942E-2,-9.948758125E0,4.995017126E-2
3.788070838E0,-3.170489892E-2,-9.932008743E0,4.037888348E-2
3.790556567E0,-3.170489892E-2,-9.922437668E0,3.080759197E-2
3.793042296E0,-2.213360928E-2,-9.903294563E0,2.841476910E-2
3.795528026E0,-4.366901144E-2,-9.915258408E0,4.755735025E-2
3.798013755E0,-3.888336942E-2,-9.893723488E0,2.362912335E-2
3.800499484E0,-2.452643216E-2,-9.910472870E0,-7.477570791E-3
3.802985213E0,-5.563312769E-2,-9.903294563E0,1.645065658E-2
3.805470942E0,-3.649054468E-2,-9.886545181E0,2.362912335E-2
3.807956671E0,-4.606183618E-2,-9.872187614E0,1.166501082E-2
3.810442401E0,-5.563312769E-2,-9.876974106E0,3.080759197E-2
3.812928130E0,-8.195417374E-2,-9.865009308E0,-2.991028305E-4
3.815404484E0,-8.913264424E-2,-9.855438232E0,-2.422732860E-2
3.817890213E0,-9.391828626E-2,-9.860223770E0,-2.691925503E-3
3.820375942E0,-1.082752272E-1,-9.821938515E0,-9.870393202E-3
3.822861671E0,-1.130608693E-1,-9.848259926E0,-5.084747914E-3
3.825347401E0,-1.851446480E-1,-9.848259926E0,-1.226321608E-2
3.827833130E0,-1.322034448E-1,-9.855438232E0,2.093719784E-3
3.830318859E0,-1.106680483E-1,-9.819545746E0,-2.662015148E-2
3.832804588E0,-1.609173268E-1,-9.819545746E0,-4.815555736E-2
3.835290317E0,-1.683948934E-1,-9.814760208E0,-2.662015148E-2
3.837776046E0,-1.274178028E-1,-9.807581902E0,-2.183450572E-2
3.840261776E0,-1.369891018E-1,-9.800403595E0,-3.379862010E-2
3.842747505E0,-1.827518344E-1,-9.826724052E0,-4.336991161E-2
3.845219536E0,-1.803590059E-1,-9.843474388E0,-2.901297435E-2
3.847705265E0,-1.827518344E-1,-9.821938515E0,-2.183450572E-2
3.850190994E0,-2.186441720E-1,-9.857831001E0,-4.097708687E-2
3.852676724E0,-1.971087605E-1,-9.865009308E0,-5.294119939E-2
3.855162453E0,-2.234298140E-1,-9.845867157E0,-5.054837838E-2
3.857648182E0,-1.995015889E-1,-9.857831001E0,-2.691925503E-3
3.860133911E0,-2.186441720E-1,-9.872187614E0,1.405783277E-2
3.862619640E0,-2.593221664E-1,-9.872187614E0,-1.944168471E-2
3.865105369E0,-2.330010980E-1,-9.879366875E0,-4.336991161E-2
3.867591099E0,-2.473580390E-1,-9.879366875E0,-2.901297435E-2
3.870076828E0,-2.306082845E-1,-9.891330719E0,-2.662015148E-2
3.872562557E0,-2.521436810E-1,-9.896116257E0,-5.084747914E-3
3.875034015E0,-2.473580390E-1,-9.912865639E0,1.405783277E-2
3.877519744E0,-2.521436810E-1,-9.927223206E0,-2.991028305E-4
3.880005474E0,-3.119642437E-1,-9.905687332E0,-4.097708687E-2
3.882491203E0,-3.119642437E-1,-9.898509026E0,-2.991028305E-4
3.884976932E0,-2.952145040E-1,-9.934401512E0,9.272187948E-3
3.887462661E0,-2.976073027E-1,-9.908080101E0,4.516452923E-2
3.889948390E0,-3.215355575E-1,-9.910472870E0,-7.477570791E-3
3.892434119E0,-3.167499006E-1,-9.903294563E0,2.362912335E-2
3.894919849E0,-3.358924687E-1,-9.898509026E0,4.516452923E-2
3.897405578E0,-3.143570721E-1,-9.908080101E0,3.559323773E-2
3.899891307E0,-3.095714152E-1,-9.922437668E0,2.123630047E-2
3.902377036E0,-3.406781256E-1,-9.929615974E0,3.320041299E-2
3.904851203E0,-3.550350666E-1,-9.922437668E0,5.234299600E-2
3.907336932E0,-3.358924687E-1,-9.936794281E0,8.344969153E-2
3.909822661E0,-3.478565812E-1,-9.979865074E0,4.995017126E-2
3.912308390E0,-3.669991791E-1,-1.003011417E1,5.712864175E-2
3.914794119E0,-3.741776347E-1,-1.006630611E1,7.387840003E-2
3.917279849E0,-3.741776347E-1,-1.006152058E1,8.344969153E-2
3.919765578E0,-3.622135222E-1,-1.007587719E1,9.541380405E-2
3.922251307E0,-3.454637825E-1,-1.009980488E1,1.025922745E-1
3.924737036E0,-3.646063507E-1,-1.014526844E1,9.062815458E-2
3.927222765E0,-3.478565812E-1,-1.018594646E1,5.234299600E-2
3.929708494E0,-3.047857881E-1,-1.014287567E1,7.627122104E-2
3.932194224E0,-3.215355575E-1,-1.020748234E1,7.627122104E-2
3.934666828E0,-3.239283562E-1,-1.022183895E1,1.001994461E-1
3.937152557E0,-3.358924687E-1,-1.025773144E1,1.049850956E-1
3.939638286E0,-3.095714152E-1,-1.023619652E1,6.909275055E-2
3.942124015E0,-2.904288471E-1,-1.022423172E1,1.001994461E-1
3.944609744E0,-3.287140131E-1,-1.026012421E1,1.097707376E-1
3.947095474E0,-2.736790776E-1,-1.026730251E1,1.145563871E-1
3.949581203E0,-2.473580390E-1,-1.026251698E1,1.169492081E-1
3.952066932E0,-2.641077936E-1,-1.028644562E1,9.780662507E-2
3.954552661E0,-2.593221664E-1,-1.026490974E1,7.148557901E-2
3.957038390E0,-2.042872310E-1,-1.026012421E1,1.025922745E-1
3.959524119E0,-1.827518344E-1,-1.029840946E1,1.193420291E-1
3.962009849E0,-2.258226424E-1,-1.031067276E1,1.073779166E-1
3.964482713E0,-1.707877219E-1,-1.027448177E1,1.336989701E-1
3.966968442E0,-1.803590059E-1,-1.028166008E1,1.121635586E-1
3.969454171E0,-1.513460279E-1,-1.032024384E1,9.541380405E-2
3.971939901E0,-1.322034448E-1,-1.028883839E1,1.145563871E-1
3.974425630E0,-1.106680483E-1,-1.029601669E1,1.073779166E-1
3.976911359E0,-1.058823988E-1,-1.031785107E1,1.049850956E-1
3.979397088E0,-9.152546525E-2,-1.027448177E1,9.780662507E-2
3.981882817E0,-7.477571070E-2,-1.029362392E1,9.780662507E-2
3.984368546E0,-4.127619043E-2,-1.025055313E1,9.062815458E-2
3.986854276E0,-5.084748194E-2,-1.025533867E1,5.712864175E-2
3.989340057E0,-4.845465720E-2,-1.023141098E1,1.097707376E-1
3.991825734E0,6.580262445E-3,-1.024098206E1,9.541380405E-2
3.994298599E0,1.615155302E-2,-1.021466064E1,1.049850956E-1
3.996784328E0,-7.776673418E-3,-1.019791126E1,9.062815458E-2
3.999270057E0,1.615155302E-2,-1.018834019E1,6.191428751E-2
4.001755786E0,2.811566554E-2,-1.020269680E1,9.062815458E-2
4.004241515E0,2.811566554E-2,-1.015962601E1,1.049850956E-1
4.006727244E0,7.597211748E-2,-1.015484047E1,7.866404206E-2
4.009212974E0,7.357929647E-2,-1.013569736E1,3.559323773E-2
4.011698703E0,4.247260094E-2,-1.012373352E1,5.712864175E-2
4.014184432E0,4.486542568E-2,-1.011655521E1,5.712864175E-2
4.016670161E0,6.640082598E-2,-1.009980488E1,6.430710852E-2
4.019155890E0,8.075776696E-2,-1.011176968E1,6.909275055E-2
4.021641619E0,7.118647546E-2,-1.014287567E1,1.025922745E-1
4.024115734E0,7.357929647E-2,-1.015723324E1,5.473581702E-2
4.026601463E0,1.121635586E-1,-1.011894798E1,3.559323773E-2
4.029087192E0,9.272187948E-2,-1.014766216E1,4.755735025E-2
4.031572921E0,7.357929647E-2,-1.013809013E1,4.516452923E-2
4.034058651E0,7.597211748E-2,-1.015484047E1,3.559323773E-2
4.036544432E0,6.640082598E-2,-1.013330460E1,4.755735025E-2
4.039030109E0,8.075776696E-2,-1.008544827E1,2.602194622E-2
4.041515838E0,6.879365444E-2,-1.011416245E1,3.080759197E-2
4.044001567E0,4.965107143E-2,-1.009741211E1,5.712864175E-2
4.046487296E0,8.793623000E-2,-1.007826996E1,9.272187948E-3
4.048973026E0,1.001994461E-1,-1.006152058E1,2.093719784E-3
4.051458755E0,7.597211748E-2,-1.005194855E1,4.037888348E-2
4.053932401E0,4.965107143E-2,-1.005434132E1,6.879365072E-3
4.056418130E0,6.400800496E-2,-1.004716301E1,1.645065658E-2
4.058903859E0,7.357929647E-2,-1.005434132E1,6.879365072E-3
4.061389588E0,4.965107143E-2,-1.002293587E1,-5.084747914E-3
4.063875317E0,5.682953820E-2,-1.001336479E1,1.166501082E-2
4.066361046E0,7.357929647E-2,-9.999007225E0,-1.226321608E-2
4.068846776E0,2.572284266E-2,-1.000139999E1,-2.691925503E-3
4.071332505E0,4.725824669E-2,-1.000379372E1,4.486542661E-3
4.073818234E0,4.965107143E-2,-1.002293587E1,-1.465603895E-2
4.076303963E0,2.572284266E-2,-1.004716301E1,1.645065658E-2
4.078789692E0,1.136590727E-2,-1.005194855E1,-3.858426586E-2
4.081275421E0,2.093719877E-2,-1.002293587E1,2.093719784E-3
4.083749067E0,-5.383851007E-3,-1.003759193E1,-2.183450572E-2
4.086234796E0,1.794616925E-3,-1.003998470E1,-3.379862010E-2
4.088720526E0,-1.974078640E-2,-1.007587719E1,-5.054837838E-2
4.091206255E0,1.794616925E-3,-1.005912685E1,-1.704886183E-2
4.093691984E0,-4.127619043E-2,-1.007826996E1,2.093719784E-3
4.096177713E0,-1.256231871E-2,-1.009262657E1,-2.901297435E-2
4.098663442E0,-2.931207791E-2,-1.007587719E1,-6.011966988E-2
4.101149171E0,-3.649054468E-2,-1.008784103E1,-6.490531564E-2
4.103634901E0,-6.041877344E-2,-1.007826996E1,-5.054837838E-2
4.106120630E0,-7.956135273E-2,-1.006630611E1,-7.477570791E-3
4.108606359E0,-6.520441920E-2,-1.008305550E1,-3.858426586E-2
4.111092088E0,-7.956135273E-2,-1.008784103E1,-1.465603895E-2
4.113566359E0,-9.631111473E-2,-1.008066273E1,-3.379862010E-2
4.116051880E0,-9.152546525E-2,-1.012373352E1,-8.883354068E-2
4.118537453E0,-1.226321608E-1,-1.011416245E1,-5.772684515E-2
4.121022974E0,-1.417747438E-1,-1.011416245E1,-3.858426586E-2
4.123508494E0,-1.345962733E-1,-1.012373352E1,-2.422732860E-2
4.125994015E0,-1.154536903E-1,-1.015005493E1,-5.772684515E-2
4.128479536E0,-1.513460279E-1,-1.013569736E1,-3.858426586E-2
4.130965057E0,-1.465603858E-1,-1.012373352E1,-3.858426586E-2
4.133450578E0,-1.513460279E-1,-1.014526844E1,-3.379862010E-2
4.135936099E0,-1.489532143E-1,-1.014287567E1,-4.576273263E-2
4.138421619E0,-1.393819153E-1,-1.011655521E1,-5.772684515E-2
4.140907192E0,-1.633101404E-1,-1.012612629E1,-4.576273263E-2
4.143381515E0,-1.731805354E-1,-1.009980488E1,-1.465603895E-2
4.145867036E0,-1.755733639E-1,-1.007587719E1,-1.944168471E-2
4.148352609E0,-1.875374764E-1,-1.009741211E1,1.405783277E-2
4.150838130E0,-1.851446480E-1,-1.009501934E1,-2.691925503E-3
4.153323651E0,-2.138585299E-1,-1.009501934E1,-2.422732860E-2
4.155809171E0,-2.401795685E-1,-1.008066273E1,1.645065658E-2
4.158294692E0,-1.875374764E-1,-1.007587719E1,3.080759197E-2
4.160780213E0,-2.234298140E-1,-1.010698414E1,2.602194622E-2
4.163265734E0,-2.306082845E-1,-1.005673409E1,9.272187948E-3
4.165751255E0,-2.473580390E-1,-1.007348442E1,4.037888348E-2
4.168236776E0,-2.401795685E-1,-1.011655521E1,1.166501082E-2
4.170722296E0,-2.545365095E-1,-1.009741211E1,-9.870393202E-3
4.173197349E0,-2.401795685E-1,-1.010698414E1,1.884347759E-2
4.175682869E0,-2.521436810E-1,-1.007826996E1,3.559323773E-2
4.178168442E0,-2.784647346E-1,-1.011655521E1,4.516452923E-2
4.180653963E0,-2.617149651E-1,-1.010698414E1,-5.084747914E-3
4.183139484E0,-2.808575630E-1,-1.008544827E1,-2.691925503E-3
4.185625005E0,-2.736790776E-1,-1.009262657E1,4.486542661E-3
4.188110526E0,-2.904288471E-1,-1.008066273E1,4.037888348E-2
4.190596046E0,-2.856431901E-1,-1.007348442E1,4.037888348E-2
4.193081567E0,-3.000001311E-1,-1.009501934E1,6.909275055E-2
4.195567088E0,-2.808575630E-1,-1.010698414E1,6.430710852E-2
4.198052609E0,-2.784647346E-1,-1.011176968E1,4.995017126E-2
4.200538130E0,-2.712862790E-1,-1.010459137E1,4.277170449E-2
4.203014119E0,-2.712862790E-1,-1.008066273E1,6.430710852E-2
4.205499640E0,-2.688934505E-1,-1.005434132E1,8.823533356E-2
4.207985213E0,-2.593221664E-1,-1.009262657E1,4.995017126E-2
4.210470734E0,-2.401795685E-1,-1.006630611E1,3.559323773E-2
4.212956255E0,-2.449652255E-1,-1.004477024E1,6.191428751E-2
4.215441776E0,-2.377867550E-1,-1.002293587E1,8.584251255E-2
4.217927296E0,-2.186441720E-1,-1.002054310E1,6.430710852E-2
4.220412817E0,-2.569293380E-1,-1.000139999E1,6.909275055E-2
4.222898338E0,-2.042872310E-1,-9.979865074E0,6.669992954E-2
4.225383859E0,-1.779661775E-1,-9.965508461E0,7.627122104E-2
4.227869380E0,-1.755733639E-1,-9.979865074E0,4.516452923E-2
4.230354901E0,-1.707877219E-1,-9.955936432E0,5.234299600E-2
4.232831567E0,-1.537388563E-1,-9.958329201E0,5.952146277E-2
4.235317088E0,-1.130608693E-1,-9.934401512E0,6.191428751E-2
4.237802661E0,-9.870393574E-2,-9.948758125E0,3.798605874E-2
4.240288182E0,-9.391828626E-2,-9.972686768E0,4.755735025E-2
4.242773703E0,-6.281159073E-2,-9.946365356E0,3.080759197E-2
4.245259224E0,-7.477571070E-2,-9.915258408E0,6.430710852E-2
4.247744744E0,-7.716853172E-2,-9.903294563E0,5.952146277E-2
4.250230265E0,-1.734796353E-2,-9.941579819E0,5.473581702E-2
4.252715786E0,-2.691925503E-2,-9.920044899E0,9.272187948E-3
4.255201307E0,-2.931207791E-2,-9.917651176E0,3.798605874E-2
4.257686828E0,-2.213360928E-2,-9.936794281E0,5.712864175E-2
4.260172349E0,-3.170489892E-2,-9.922437668E0,5.952146277E-2
4.262646255E0,-1.734796353E-2,-9.932008743E0,9.541380405E-2
4.265131776E0,1.794616925E-3,-9.927223206E0,2.123630047E-2
4.267617349E0,6.400800496E-2,-9.967901230E0,2.123630047E-2
4.270102869E0,3.290131316E-2,-9.934401512E0,7.148557901E-2
4.272588390E0,2.333002165E-2,-9.922437668E0,5.952146277E-2
4.275073911E0,8.554340899E-2,-9.946365356E0,4.995017126E-2
4.277559432E0,5.204389244E-2,-9.955936432E0,6.909275055E-2
4.280044953E0,6.400800496E-2,-9.967901230E0,6.909275055E-2
4.282530474E0,1.049850956E-1,-9.967901230E0,6.191428751E-2
4.285015994E0,9.032905847E-2,-9.975079536E0,6.191428751E-2
4.287501515E0,9.750752151E-2,-9.960722923E0,4.037888348E-2
4.289987036E0,7.836493850E-2,-9.932008743E0,2.841476910E-2
4.292463286E0,8.315058798E-2,-9.948758125E0,4.995017126E-2
4.294948807E0,1.097707376E-1,-9.965508461E0,3.798605874E-2
4.297434380E0,1.193420291E-1,-9.934401512E0,6.430710852E-2
4.299919901E0,1.241276711E-1,-9.932008743E0,2.841476910E-2
4.302405421E0,1.169492081E-1,-9.951150894E0,1.645065658E-2
4.304890942E0,1.313061416E-1,-9.970293999E0,2.841476910E-2
4.307376463E0,1.456630826E-1,-9.924830437E0,-7.477570791E-3
4.309861984E0,1.217348501E-1,-9.943972588E0,-7.477570791E-3
4.312347505E0,1.241276711E-1,-9.948758125E0,-5.084747914E-3
4.314833026E0,1.504487246E-1,-9.939187050E0,2.362912335E-2
4.317318546E0,1.360917836E-1,-9.932008743E0,3.320041299E-2
4.319804067E0,1.217348501E-1,-9.984650612E0,1.405783277E-2
4.322280057E0,1.456630826E-1,-9.967901230E0,1.405783277E-2
4.324765578E0,1.193420291E-1,-9.924830437E0,-2.991028305E-4
4.327251151E0,1.432702541E-1,-9.920044899E0,1.645065658E-2
4.329736671E0,9.750752151E-2,-9.924830437E0,-1.465603895E-2
4.332222192E0,1.217348501E-1,-9.941579819E0,-2.691925503E-3
4.334707713E0,1.384846121E-1,-9.960722923E0,-9.870393202E-3
4.337193234E0,9.272187948E-2,-9.953543663E0,-1.704886183E-2
4.339678755E0,1.217348501E-1,-9.939187050E0,-1.465603895E-2
4.342164276E0,1.001994461E-1,-9.948758125E0,-1.704886183E-2
4.344649796E0,9.272187948E-2,-9.967901230E0,6.879365072E-3
4.347135317E0,1.097707376E-1,-9.999007225E0,-3.619144112E-2
4.349620838E0,1.049850956E-1,-9.967901230E0,-2.901297435E-2
4.352096203E0,9.511470050E-2,-9.987043381E0,-2.662015148E-2
4.354581724E0,5.682953820E-2,-1.001097202E1,-2.183450572E-2
4.357067296E0,7.597211748E-2,-9.970293999E0,-2.901297435E-2
4.359552817E0,8.075776696E-2,-9.984650612E0,-6.011966988E-2
4.362038338E0,7.597211748E-2,-1.000379372E1,-3.140579537E-2
4.364523859E0,8.075776696E-2,-9.982257843E0,-8.883354068E-2
4.367009380E0,7.357929647E-2,-9.977472305E0,-7.208377868E-2
4.369494901E0,6.161518395E-2,-9.982257843E0,-3.619144112E-2
4.371980421E0,4.247260094E-2,-1.003250694E1,-3.140579537E-2
4.374465942E0,4.725824669E-2,-1.001336479E1,-7.477570791E-3
4.376951463E0,6.580262445E-3,-1.002772141E1,-5.294119939E-2
4.379436984E0,-5.982056609E-4,-1.003250694E1,-2.901297435E-2
4.381929953E0,5.682953820E-2,-1.006152058E1,-6.490531564E-2
4.384415474E0,-1.734796353E-2,-1.004955578E1,-9.122636169E-2
4.386901046E0,-5.383851007E-3,-1.003489971E1,-6.011966988E-2
4.389386567E0,-7.776673418E-3,-1.005912685E1,-6.011966988E-2
4.391872088E0,-2.931207791E-2,-1.009980488E1,-6.251249462E-2
4.394357609E0,-3.888336942E-2,-1.008305550E1,-6.251249462E-2
4.396843130E0,-3.888336942E-2,-1.008544827E1,-2.662015148E-2
4.399328651E0,-5.563312769E-2,-1.012851906E1,-6.011966988E-2
4.401814171E0,-2.931207791E-2,-1.010937691E1,-8.165507019E-2
4.404299692E0,-7.716853172E-2,-1.010219765E1,-2.183450572E-2
4.406785213E0,-6.999006122E-2,-1.009980488E1,-6.251249462E-2
4.409270734E0,-8.673982322E-2,-1.011894798E1,-2.422732860E-2
4.411730161E0,-1.058823988E-1,-1.011894798E1,-2.991028305E-4
4.414215682E0,-1.202393398E-1,-1.006630611E1,-1.944168471E-2
4.416701255E0,-1.537388563E-1,-1.005194855E1,-3.619144112E-2
4.419186776E0,-1.298106313E-1,-1.007348442E1,-2.901297435E-2
4.421672296E0,-1.393819153E-1,-1.006152058E1,-3.858426586E-2
4.424157817E0,-1.633101404E-1,-1.006391335E1,-1.465603895E-2
4.426643338E0,-1.417747438E-1,-1.004955578E1,-1.944168471E-2
4.429128859E0,-1.489532143E-1,-1.002772141E1,-5.054837838E-2
4.431614380E0,-1.899302900E-1,-1.002772141E1,-2.662015148E-2
4.434099901E0,-1.393819153E-1,-1.002532864E1,-3.140579537E-2
4.436585421E0,-1.537388563E-1,-1.001097202E1,-1.944168471E-2
4.439070942E0,-1.923231184E-1,-1.001336479E1,4.486542661E-3
4.441544276E0,-1.875374764E-1,-9.982257843E0,-2.691925503E-3
4.444029796E0,-1.947159469E-1,-9.996614456E0,-2.901297435E-2
4.446515369E0,-1.513460279E-1,-9.984650612E0,-5.084747914E-3
4.449000890E0,-2.090728730E-1,-9.989436150E0,-9.870393202E-3
4.451486411E0,-2.066800594E-1,-9.967901230E0,-1.944168471E-2
4.453971932E0,-2.042872310E-1,-9.958329201E0,1.645065658E-2
4.456457453E0,-2.090728730E-1,-9.941579819E0,1.405783277E-2
4.458942974E0,-2.330010980E-1,-9.967901230E0,1.405783277E-2
4.461428494E0,-2.569293380E-1,-9.979865074E0,1.405783277E-2
4.463914015E0,-2.425723970E-1,-9.955936432E0,-1.226321608E-2
4.466399536E0,-2.401795685E-1,-9.915258408E0,2.841476910E-2
4.468885057E0,-2.497508675E-1,-9.932008743E0,1.645065658E-2
4.471370317E0,-2.641077936E-1,-9.941579819E0,6.430710852E-2
4.473855838E0,-2.545365095E-1,-9.941579819E0,5.952146277E-2
4.476341359E0,-2.186441720E-1,-9.924830437E0,6.191428751E-2
4.478826880E0,-2.090728730E-1,-9.917651176E0,6.669992954E-2
4.481312401E0,-2.138585299E-1,-9.929615974E0,3.559323773E-2
4.483797921E0,-1.947159469E-1,-9.946365356E0,3.559323773E-2
4.486283442E0,-1.971087605E-1,-9.943972588E0,4.516452923E-2
4.488768963E0,-2.258226424E-1,-9.927223206E0,2.841476910E-2
4.491254484E0,-2.234298140E-1,-9.953543663E0,6.669992954E-2
4.493740005E0,-1.683948934E-1,-9.948758125E0,6.191428751E-2
4.496225526E0,-1.683948934E-1,-9.903294563E0,2.602194622E-2
4.498711099E0,-1.513460279E-1,-9.936794281E0,6.191428751E-2
4.501201619E0,-1.178465188E-1,-9.936794281E0,8.584251255E-2
4.503687140E0,-1.345962733E-1,-9.896116257E0,5.712864175E-2
4.506172713E0,-1.779661775E-1,-9.865009308E0,2.602194622E-2
4.508658234E0,-1.465603858E-1,-9.862616539E0,2.841476910E-2
4.511143755E0,-1.154536903E-1,-9.865009308E0,4.755735025E-2
4.513629276E0,-1.178465188E-1,-9.862616539E0,5.234299600E-2
4.516114796E0,-8.673982322E-2,-9.857831001E0,5.952146277E-2
4.518600317E0,-9.152546525E-2,-9.841081619E0,6.191428751E-2
4.521085838E0,-8.913264424E-2,-9.848259926E0,7.387840003E-2
4.523571359E0,-5.383851007E-3,-9.805189133E0,4.755735025E-2
4.526056880E0,-1.974078640E-2,-9.809974670E0,5.473581702E-2
4.528542401E0,-6.759724021E-2,-9.788438797E0,4.516452923E-2
4.531006880E0,-3.649054468E-2,-9.761818886E0,3.559323773E-2
4.533492401E0,-7.776673418E-3,-9.740283966E0,5.234299600E-2
4.535977974E0,-5.383851007E-3,-9.711569786E0,5.952146277E-2
4.538463494E0,-2.213360928E-2,-9.728319168E0,3.559323773E-2
4.540949015E0,4.725824669E-2,-9.716355324E0,3.798605874E-2
4.543434536E0,5.443671346E-2,-9.711569786E0,7.866404206E-2
4.545920057E0,5.204389244E-2,-9.723533630E0,7.148557901E-2
4.548405578E0,6.879365444E-2,-9.735498428E0,4.995017126E-2
4.550891099E0,3.768695518E-2,-9.723533630E0,4.516452923E-2
4.553376619E0,5.922235921E-2,-9.733105659E0,4.277170449E-2
4.555862140E0,7.357929647E-2,-9.709177017E0,6.430710852E-2
4.558347661E0,6.640082598E-2,-9.745069504E0,7.148557901E-2
4.560833755E0,1.049850956E-1,-9.754640579E0,3.320041299E-2
4.563319276E0,1.121635586E-1,-9.759426117E0,4.755735025E-2
4.565804849E0,1.241276711E-1,-9.795618057E0,5.712864175E-2
4.568290369E0,8.793623000E-2,-9.737891197E0,4.277170449E-2
4.570775890E0,9.511470050E-2,-9.759426117E0,5.952146277E-2
4.573261411E0,9.750752151E-2,-9.788438797E0,4.755735025E-2
4.575746932E0,1.049850956E-1,-9.776474953E0,3.080759197E-2
4.578232453E0,9.511470050E-2,-9.776474953E0,4.037888348E-2
4.580717974E0,1.049850956E-1,-9.747462273E0,3.798605874E-2
4.583203494E0,1.049850956E-1,-9.781260490E0,4.277170449E-2
4.585689015E0,1.217348501E-1,-9.769296646E0,5.473581702E-2
4.588174536E0,1.169492081E-1,-9.781260490E0,2.123630047E-2
4.590618390E0,1.384846121E-1,-9.766604424E0,1.645065658E-2
4.593103911E0,1.624128371E-1,-9.749855042E0,3.080759197E-2
4.595589432E0,1.097707376E-1,-9.754640579E0,2.362912335E-2
4.598074953E0,1.193420291E-1,-9.745069504E0,2.123630047E-2
4.600560474E0,9.750752151E-2,-9.783653259E0,3.080759197E-2
4.603045994E0,1.241276711E-1,-9.788438797E0,3.080759197E-2
4.605531567E0,1.576271951E-1,-9.783653259E0,-1.704886183E-2
4.608017088E0,1.193420291E-1,-9.812367439E0,-3.619144112E-2
4.610502609E0,1.241276711E-1,-9.786046028E0,-5.084747914E-3
4.612988130E0,1.576271951E-1,-9.774082184E0,1.645065658E-2
4.615473651E0,1.241276711E-1,-9.752247810E0,-2.691925503E-3
4.617959171E0,1.289133132E-1,-9.725926399E0,2.093719784E-3
4.620441151E0,1.456630826E-1,-9.733105659E0,-9.870393202E-3
4.622926515E0,1.671984792E-1,-9.725926399E0,-9.870393202E-3
4.625411880E0,1.360917836E-1,-9.716355324E0,-4.097708687E-2
4.627897192E0,1.313061416E-1,-9.709177017E0,-3.858426586E-2
4.630382557E0,1.480558962E-1,-9.716355324E0,-2.662015148E-2
4.632867921E0,1.384846121E-1,-9.690034866E0,-5.533402413E-2
4.635353286E0,1.671984792E-1,-9.704391479E0,-6.251249462E-2
4.637838651E0,1.576271951E-1,-9.685248375E0,-2.901297435E-2
4.640324015E0,1.217348501E-1,-9.701998711E0,-5.294119939E-2
4.642809328E0,1.265204996E-1,-9.713962555E0,-3.619144112E-2
4.645294692E0,1.121635586E-1,-9.690034866E0,-4.336991161E-2
4.647780057E0,1.145563871E-1,-9.701998711E0,-5.054837838E-2
4.650258911E0,1.001994461E-1,-9.690034866E0,-7.208377868E-2
4.652744276E0,9.032905847E-2,-9.701998711E0,-3.140579537E-2
4.655229640E0,8.554340899E-2,-9.670891762E0,-4.097708687E-2
4.657714953E0,9.032905847E-2,-9.690034866E0,-6.969095767E-2
4.660200317E0,8.315058798E-2,-9.694820404E0,-9.361918271E-2
4.662685682E0,4.007977992E-2,-9.690034866E0,-5.772684515E-2
4.665171046E0,3.290131316E-2,-9.704391479E0,-4.576273263E-2
4.667656411E0,-5.383851007E-3,-9.730711937E0,-6.011966988E-2
4.670141776E0,2.093719877E-2,-9.701998711E0,-4.815555736E-2
4.672627088E0,-2.991028363E-3,-9.733105659E0,-6.729813665E-2
4.675112453E0,-5.982056609E-4,-9.718748093E0,-5.054837838E-2
4.677597817E0,-2.991028363E-3,-9.723533630E0,-5.294119939E-2
4.680074067E0,-1.016949583E-2,-9.716355324E0,-5.772684515E-2
4.682559432E0,-2.931207791E-2,-9.694820404E0,-5.054837838E-2
4.685044796E0,-2.452643216E-2,-9.742676735E0,-5.294119939E-2
4.687530109E0,-7.477571070E-2,-9.759426117E0,-4.336991161E-2
4.690015474E0,-7.477571070E-2,-9.742676735E0,-3.858426586E-2
4.692500838E0,-7.238288224E-2,-9.742676735E0,-4.097708687E-2
4.694986203E0,-8.195417374E-2,-9.747462273E0,-5.533402413E-2
4.697471567E0,-9.631111473E-2,-9.761818886E0,-2.183450572E-2
4.699956932E0,-8.913264424E-2,-9.757033348E0,-5.294119939E-2
4.702442244E0,-1.034895778E-1,-9.805189133E0,-5.294119939E-2
4.704927609E0,-1.034895778E-1,-9.805189133E0,-3.858426586E-2
4.707412974E0,-9.631111473E-2,-9.812367439E0,-9.870393202E-3
4.709891932E0,-1.322034448E-1,-9.850652695E0,-2.662015148E-2
4.712377296E0,-1.683948934E-1,-9.836296082E0,-3.619144112E-2
4.714862661E0,-1.322034448E-1,-9.853045464E0,-1.226321608E-2
4.717347974E0,-1.417747438E-1,-9.848259926E0,1.884347759E-2
4.719833338E0,-1.561316848E-1,-9.857831001E0,1.884347759E-2
4.722318703E0,-1.707877219E-1,-9.857831001E0,2.093719784E-3
4.724804067E0,-1.633101404E-1,-9.853045464E0,1.405783277E-2
4.727289432E0,-1.683948934E-1,-9.869794846E0,2.093719784E-3
4.729774796E0,-2.018944174E-1,-9.850652695E0,1.166501082E-2
4.732260109E0,-1.585244983E-1,-9.824331284E0,1.645065658E-2
4.734745474E0,-1.851446480E-1,-9.814760208E0,-5.084747914E-3
4.737230838E0,-1.875374764E-1,-9.778867722E0,-2.991028305E-4
4.739707869E0,-1.947159469E-1,-9.809974670E0,1.884347759E-2
4.742193234E0,-2.162513435E-1,-9.798010826E0,5.234299600E-2
4.744678599E0,-1.899302900E-1,-9.759426117E0,6.430710852E-2
4.747163911E0,-1.683948934E-1,-9.814760208E0,5.952146277E-2
4.749649276E0,-1.875374764E-1,-9.759426117E0,5.712864175E-2
4.752134640E0,-1.899302900E-1,-9.781260490E0,5.712864175E-2
4.754620005E0,-2.306082845E-1,-9.764211655E0,3.320041299E-2
4.757105369E0,-1.875374764E-1,-9.757033348E0,4.995017126E-2
4.759590734E0,-2.138585299E-1,-9.764211655E0,4.995017126E-2
4.762076046E0,-1.609173268E-1,-9.795618057E0,5.473581702E-2
4.764561411E0,-1.561316848E-1,-9.821938515E0,8.105687052E-2
4.767046776E0,-1.851446480E-1,-9.826724052E0,1.025922745E-1
4.769525005E0,-1.585244983E-1,-9.841081619E0,7.866404206E-2
4.772010369E0,-1.561316848E-1,-9.900901794E0,2.841476910E-2
4.774495734E0,-1.923231184E-1,-9.917651176E0,8.584251255E-2
4.776981046E0,-1.561316848E-1,-9.905687332E0,5.473581702E-2
4.779466411E0,-1.465603858E-1,-9.934401512E0,9.062815458E-2
4.781951776E0,-1.369891018E-1,-9.934401512E0,1.217348501E-1
4.784437140E0,-1.489532143E-1,-9.932008743E0,7.387840003E-2
4.786922505E0,-9.870393574E-2,-9.929615974E0,6.909275055E-2
4.789407869E0,-1.226321608E-1,-9.955936432E0,8.105687052E-2
4.791893182E0,-1.274178028E-1,-9.955936432E0,8.105687052E-2
4.794378546E0,-1.106680483E-1,-9.955936432E0,9.062815458E-2
4.796863911E0,-1.178465188E-1,-9.955936432E0,7.866404206E-2
4.799339953E0,-1.202393398E-1,-9.958329201E0,8.344969153E-2
4.801825317E0,-7.956135273E-2,-9.970293999E0,6.430710852E-2
4.804310682E0,-5.563312769E-2,-9.970293999E0,6.669992954E-2
4.806795994E0,-7.477571070E-2,-9.951150894E0,7.866404206E-2
4.809281359E0,-6.520441920E-2,-9.943972588E0,5.473581702E-2
4.811766724E0,-4.366901144E-2,-9.941579819E0,5.234299600E-2
4.814252088E0,-4.845465720E-2,-9.943972588E0,4.516452923E-2
4.816737453E0,-3.649054468E-2,-9.948758125E0,8.584251255E-2
4.819222817E0,-3.888336942E-2,-9.936794281E0,8.584251255E-2
4.821708130E0,1.794616925E-3,-9.915258408E0,6.191428751E-2
4.824193494E0,3.290131316E-2,-9.927223206E0,6.669992954E-2
4.826678859E0,-5.982056609E-4,-9.951150894E0,6.191428751E-2
4.829157817E0,6.580262445E-3,-9.912865639E0,2.602194622E-2
4.831643182E0,3.050848842E-2,-9.896116257E0,3.080759197E-2
4.834128546E0,4.486542568E-2,-9.860223770E0,3.559323773E-2
4.836613859E0,6.400800496E-2,-9.876974106E0,4.037888348E-2
4.839099224E0,7.357929647E-2,-9.872187614E0,4.037888348E-2
4.841584588E0,7.118647546E-2,-9.872187614E0,3.798605874E-2
4.844069953E0,4.247260094E-2,-9.838688850E0,6.430710852E-2
4.846555317E0,6.640082598E-2,-9.802796364E0,3.320041299E-2
4.849040682E0,1.049850956E-1,-9.819545746E0,2.841476910E-2
4.851525994E0,6.879365444E-2,-9.824331284E0,3.320041299E-2
4.854011359E0,8.554340899E-2,-9.809974670E0,3.320041299E-2
4.856496724E0,1.001994461E-1,-9.788438797E0,3.559323773E-2
4.858972505E0,1.025922745E-1,-9.829116821E0,4.277170449E-2
4.861457869E0,1.193420291E-1,-9.766604424E0,5.473581702E-2
4.863943234E0,1.145563871E-1,-9.783653259E0,4.755735025E-2
4.866428546E0,1.001994461E-1,-9.764211655E0,9.272187948E-3
4.868913911E0,1.025922745E-1,-9.788438797E0,2.602194622E-2
4.871399276E0,1.025922745E-1,-9.778867722E0,4.516452923E-2
4.873884640E0,1.073779166E-1,-9.752247810E0,3.798605874E-2
4.876370005E0,1.025922745E-1,-9.752247810E0,4.516452923E-2
4.878855369E0,1.145563871E-1,-9.752247810E0,3.080759197E-2
4.881340682E0,1.169492081E-1,-9.713962555E0,4.995017126E-2
4.883826046E0,1.241276711E-1,-9.668498993E0,-2.691925503E-3
4.886311411E0,1.073779166E-1,-9.596714020E0,1.166501082E-2
4.888790317E0,1.432702541E-1,-9.699605942E0,1.405783277E-2
4.891275682E0,1.624128371E-1,-9.800403595E0,2.093719784E-3
4.893761046E0,1.121635586E-1,-9.764211655E0,4.277170449E-2
4.896246359E0,1.456630826E-1,-9.733105659E0,1.166501082E-2
4.898731724E0,1.265204996E-1,-9.812367439E0,9.272187948E-3
4.901217088E0,1.217348501E-1,-9.800403595E0,-5.084747914E-3
4.903702453E0,1.528415531E-1,-9.831509590E0,4.486542661E-3
4.906187817E0,1.289133132E-1,-9.879366875E0,-2.691925503E-3
4.908673182E0,1.193420291E-1,-9.857831001E0,-2.422732860E-2
4.911158494E0,7.597211748E-2,-9.886545181E0,-4.097708687E-2
4.913643859E0,1.193420291E-1,-9.920044899E0,-3.619144112E-2
4.916129224E0,1.073779166E-1,-9.929615974E0,-1.465603895E-2
4.918590005E0,8.793623000E-2,-9.915258408E0,-2.901297435E-2
4.921075369E0,6.161518395E-2,-9.943972588E0,-1.465603895E-2
4.923560734E0,4.725824669E-2,-9.955936432E0,-4.576273263E-2
4.926046046E0,5.204389244E-2,-9.958329201E0,-2.183450572E-2
4.928531411E0,4.007977992E-2,-9.979865074E0,-2.901297435E-2
4.931016776E0,3.529413417E-2,-9.994221687E0,-3.140579537E-2
4.933502140E0,4.007977992E-2,-9.972686768E0,-7.477570791E-3
4.935987505E0,1.615155302E-2,-9.955936432E0,-4.336991161E-2
4.938472869E0,-2.991028363E-3,-9.941579819E0,-4.815555736E-2
4.940958182E0,-2.213360928E-2,-9.948758125E0,-2.901297435E-2
4.943443546E0,-5.383851007E-3,-9.960722923E0,-2.901297435E-2
4.945928911E0,-2.213360928E-2,-9.967901230E0,-5.294119939E-2
4.948421463E0,-2.931207791E-2,-9.972686768E0,-6.251249462E-2
4.950906828E0,-1.256231871E-2,-9.987043381E0,-5.054837838E-2
4.953392192E0,-7.776673418E-3,-9.994221687E0,-2.901297435E-2
4.955877505E0,-3.649054468E-2,-1.002293587E1,-4.815555736E-2
4.958362869E0,-8.195417374E-2,-1.002772141E1,-2.422732860E-2
4.960848234E0,-9.152546525E-2,-1.002054310E1,-6.011966988E-2
4.963333599E0,-6.759724021E-2,-1.004477024E1,-4.097708687E-2
4.965818963E0,-8.913264424E-2,-1.005912685E1,2.093719784E-3
4.968304328E0,-1.010967568E-1,-1.009980488E1,-2.422732860E-2
4.970789640E0,-1.010967568E-1,-1.010219765E1,-2.991028305E-4
4.973275005E0,-1.082752272E-1,-1.011176968E1,9.272187948E-3
4.975760369E0,-1.226321608E-1,-1.012612629E1,1.645065658E-2
4.978239744E0,-1.178465188E-1,-1.012851906E1,2.362912335E-2
