"Time (s)","Gyroscope x (rad/s)","Gyroscope y (rad/s)","Gyroscope z (rad/s)"
7.941229600E-2,-5.392742157E-2,-4.793548491E-3,7.722939365E-3
8.190198400E-2,-5.605788901E-2,-5.858781748E-3,1.091863867E-2
8.439161900E-2,-7.416684926E-2,-7.989247330E-3,3.462007269E-3
8.683917100E-2,-9.121058136E-2,-1.011971384E-2,-2.929390874E-3
8.932880700E-2,-9.760197252E-2,-1.544587873E-2,-7.989247679E-4
9.181844200E-2,-1.029281393E-1,-1.651111245E-2,-3.994623665E-3
9.430813000E-2,-1.114500016E-1,-1.544587873E-2,-8.255556226E-3
9.679776500E-2,-1.199718714E-1,-1.757634431E-2,-9.320789017E-3
9.928740100E-2,-1.252980381E-1,-2.170412242E-2,-1.038602181E-2
1.017770880E-1,-1.295589656E-1,-2.383458801E-2,-1.038602181E-2
1.042667240E-1,-1.380808353E-1,-2.276935615E-2,-7.190322969E-3
1.067563590E-1,-1.380808353E-1,-1.850842312E-2,2.663082560E-4
1.092460460E-1,-1.391460598E-1,-1.544587873E-2,2.663082560E-4
1.117356820E-1,-1.380808353E-1,-3.728315700E-3,2.396774245E-3
1.142253690E-1,-1.370155960E-1,-1.597849536E-3,5.592473317E-3
1.166350050E-1,-1.316894293E-1,5.326165119E-4,7.722939365E-3
1.191246400E-1,-1.316894293E-1,5.326165119E-4,1.198387146E-2
1.216142760E-1,-1.274285018E-1,-3.728315700E-3,1.944050193E-2
1.241039630E-1,-1.199718714E-1,-9.054481052E-3,2.796236612E-2
1.265935990E-1,-1.103847697E-1,-1.651111245E-2,3.222329915E-2
1.290832340E-1,-1.039933711E-1,-2.489982173E-2,3.222329915E-2
1.315729210E-1,-9.121058136E-2,-3.129122034E-2,3.648423031E-2
1.340625570E-1,-8.375394344E-2,-3.235645220E-2,3.648423031E-2
1.365521920E-1,-7.736254483E-2,-3.448691964E-2,3.754946589E-2
1.390418800E-1,-6.990591437E-2,-3.448691964E-2,3.754946589E-2
1.415315150E-1,-6.671021879E-2,-3.342168778E-2,3.648423031E-2
1.440212030E-1,-6.244928762E-2,-2.809552103E-2,3.861469775E-2
1.464707860E-1,-6.138405204E-2,-2.170412242E-2,4.074516147E-2
1.489604210E-1,-5.818835273E-2,-1.757634431E-2,3.861469775E-2
1.514500570E-1,-5.499265343E-2,-1.438064594E-2,3.967992961E-2
1.539397440E-1,-5.712312087E-2,-2.063889056E-2,4.181039706E-2
1.564293800E-1,-6.031882018E-2,-3.022598661E-2,4.500609636E-2
1.589190150E-1,-5.925358832E-2,-3.768261895E-2,4.181039706E-2
1.614087030E-1,-5.605788901E-2,-4.726971686E-2,4.074516147E-2
1.638983380E-1,-5.392742157E-2,-5.366111174E-2,4.287562892E-2
1.663879740E-1,-4.966649041E-2,-5.685681105E-2,4.287562892E-2
1.688776610E-1,-4.753602296E-2,-6.005251035E-2,4.181039706E-2
1.713672960E-1,-4.434032366E-2,-5.792204663E-2,3.754946589E-2
1.738569840E-1,-4.220985994E-2,-6.005251035E-2,3.648423031E-2
1.762643800E-1,-4.220985994E-2,-5.898727849E-2,3.328853101E-2
1.787540150E-1,-3.901416063E-2,-5.579157919E-2,2.902759984E-2
1.812436510E-1,-3.794892505E-2,-5.153064802E-2,2.263620123E-2
1.837333380E-1,-3.794892505E-2,-4.620448127E-2,1.304910425E-2
1.862229740E-1,-3.794892505E-2,-3.874785081E-2,6.657706574E-3
1.887126090E-1,-4.007939249E-2,-3.022598661E-2,1.331541222E-3
1.912022960E-1,-4.007939249E-2,-2.489982173E-2,-5.059856921E-3
1.936919320E-1,-4.647079110E-2,-1.850842312E-2,-1.571218669E-2
1.961815670E-1,-4.327509180E-2,-1.011971384E-2,-2.423405088E-2
1.986712550E-1,-4.860125855E-2,-4.793548491E-3,-2.742975019E-2
2.011608900E-1,-5.392742157E-2,1.597849536E-3,-3.701684624E-2
2.036505780E-1,-5.286218971E-2,3.728315700E-3,-4.127778113E-2
2.060778170E-1,-5.925358832E-2,3.728315700E-3,-4.234301299E-2
2.085674530E-1,-6.457975507E-2,2.663082443E-3,-4.340824485E-2
2.110570880E-1,-6.244928762E-2,-1.597849536E-3,-3.914731368E-2
2.135467760E-1,-6.351451576E-2,-1.011971384E-2,-3.488638252E-2
2.160364110E-1,-6.884068251E-2,-1.957365684E-2,-2.742975019E-2
2.185260460E-1,-6.990591437E-2,-2.703028731E-2,-2.103835158E-2
2.210157340E-1,-6.457975507E-2,-3.342168778E-2,-6.125089712E-3
2.235053690E-1,-6.031882018E-2,-3.874785081E-2,-1.864157850E-3
2.259950050E-1,-5.818835273E-2,-3.981308267E-2,8.788172156E-3
2.284846920E-1,-5.179695413E-2,-4.407401755E-2,2.050573565E-2
2.309743280E-1,-4.753602296E-2,-4.407401755E-2,2.689713426E-2
2.334640150E-1,-4.220985994E-2,-3.555215150E-2,3.648423031E-2
2.358970360E-1,-3.475322574E-2,-3.129122034E-2,5.139749497E-2
2.383866710E-1,-2.516612969E-2,-2.809552103E-2,5.991935730E-2
2.408763070E-1,-1.877473295E-2,-2.170412242E-2,6.311506033E-2
2.433659940E-1,-1.238333434E-2,-1.544587873E-2,6.737598777E-2
2.458556300E-1,-9.187635034E-3,-7.989247330E-3,7.163692266E-2
2.483452650E-1,-2.796236658E-3,5.326165119E-4,8.335448056E-2
2.508349530E-1,-6.657706108E-4,6.924014539E-3,9.081111848E-2
2.533245880E-1,2.529928461E-3,9.054481052E-3,9.826774895E-2
2.558142240E-1,9.986559860E-3,1.331541315E-2,1.067896113E-1
2.583039110E-1,7.856093347E-3,1.864157803E-2,1.185071766E-1
2.607935460E-1,1.531272475E-2,2.290250920E-2,1.227681041E-1
2.632832340E-1,2.276935615E-2,2.822867595E-2,1.334204376E-1
2.657117760E-1,2.703028731E-2,3.355484083E-2,1.483336985E-1
2.682014110E-1,2.703028731E-2,4.207670316E-2,1.653774232E-1
2.706910460E-1,2.916075476E-2,4.953333735E-2,1.834863871E-1
2.731807340E-1,3.342168778E-2,5.379426852E-2,2.015953511E-1
2.756703690E-1,3.661738336E-2,5.485950038E-2,2.186390758E-1
2.781600050E-1,4.407401755E-2,5.272903293E-2,2.323539555E-1
2.806496920E-1,5.685681105E-2,3.994623944E-2,2.451367527E-1
2.831393280E-1,7.177007198E-2,1.757634431E-2,2.536586225E-1
2.856289630E-1,8.455286920E-2,1.597849536E-3,2.589847744E-1
2.881186510E-1,9.413997084E-2,-9.054481052E-3,2.664414048E-1
2.906082860E-1,9.733566642E-2,-1.118494663E-2,2.770937383E-1
2.930979740E-1,1.037270650E-1,-3.728315700E-3,2.856155932E-1
2.955303690E-1,1.026618332E-1,2.663082443E-3,2.973331809E-1
2.980200050E-1,1.015966013E-1,1.757634431E-2,3.037245572E-1
3.005096400E-1,1.015966013E-1,2.609820850E-2,3.047898114E-1
3.029993280E-1,1.079879999E-1,3.248960897E-2,3.079854846E-1
3.054889630E-1,1.026618332E-1,4.314193875E-2,3.111811876E-1
3.079785990E-1,9.840089828E-2,5.698996782E-2,3.239639997E-1
3.104682860E-1,8.774857223E-2,6.870753318E-2,3.356815577E-1
3.129579210E-1,8.135717362E-2,7.403369248E-2,3.442034125E-1
3.154475570E-1,8.029194176E-2,7.935985923E-2,3.505948186E-1
3.179372440E-1,8.029194176E-2,7.722939551E-2,3.442034125E-1
3.204268800E-1,8.561810106E-2,6.977276504E-2,3.410077095E-1
3.229165670E-1,9.307473898E-2,6.338136643E-2,3.335510790E-1
3.253437030E-1,9.520520270E-2,5.379426852E-2,3.175725937E-1
3.278333380E-1,9.946613014E-2,4.420717061E-2,3.026593328E-1
3.303229740E-1,1.015966013E-1,4.207670316E-2,2.866808474E-1
3.328126610E-1,1.005313694E-1,3.888100386E-2,2.643109560E-1
3.353022960E-1,9.840089828E-2,3.675054014E-2,2.430062890E-1
3.377919320E-1,9.413997084E-2,3.675054014E-2,2.229000032E-1
3.402816190E-1,8.242240548E-2,3.675054014E-2,2.026605755E-1
3.427712550E-1,7.390054315E-2,3.888100386E-2,1.845516264E-1
3.452608900E-1,6.644391268E-2,3.994623944E-2,1.611164957E-1
3.477505780E-1,4.620448127E-2,4.314193875E-2,1.376813650E-1
3.502402130E-1,3.342168778E-2,5.059856921E-2,1.238333359E-1
3.527299010E-1,8.921326138E-3,5.698996782E-2,1.057243794E-1
3.551596920E-1,-1.451379992E-2,5.912043154E-2,8.974587917E-2
3.576493280E-1,-3.262276202E-2,6.018566713E-2,7.270215452E-2
3.601389630E-1,-4.966649041E-2,5.379426852E-2,5.246272683E-2
3.626286510E-1,-6.990591437E-2,4.846810177E-2,3.861469775E-2
3.651182860E-1,-8.801487833E-2,3.994623944E-2,2.050573565E-2
3.676079210E-1,-1.007976755E-1,3.142437339E-2,1.331541222E-3
3.700976090E-1,-1.157109365E-1,2.609820850E-2,-1.251648832E-2
3.725872440E-1,-1.306242049E-1,1.438064594E-2,-2.423405088E-2
3.750768800E-1,-1.380808353E-1,1.597849536E-3,-3.701684624E-2
3.775665670E-1,-1.380808353E-1,-1.011971384E-2,-4.873441160E-2
3.800562030E-1,-1.423417628E-1,-2.383458801E-2,-6.045197323E-2
3.825458900E-1,-1.466026902E-1,-3.342168778E-2,-6.364767253E-2
3.849775050E-1,-1.434070021E-1,-3.981308267E-2,-6.790860742E-2
3.874671400E-1,-1.455374658E-1,-3.874785081E-2,-7.003907114E-2
3.899567760E-1,-1.434070021E-1,-4.087831825E-2,-6.684337556E-2
3.924464630E-1,-1.412765235E-1,-4.300878197E-2,-6.258244067E-2
3.949360990E-1,-1.380808353E-1,-3.981308267E-2,-5.832150951E-2
3.974257340E-1,-1.434070021E-1,-3.555215150E-2,-5.512581021E-2
3.999154210E-1,-1.455374658E-1,-3.129122034E-2,-5.299534276E-2
4.024050570E-1,-1.466026902E-1,-2.276935615E-2,-4.873441160E-2
4.048946920E-1,-1.487331539E-1,-2.383458801E-2,-4.340824485E-2
4.073843800E-1,-1.466026902E-1,-1.331541315E-2,-3.914731368E-2
4.098740150E-1,-1.508636326E-1,-9.054481052E-3,-3.275591508E-2
4.123637030E-1,-1.519288570E-1,-1.438064594E-2,-3.275591508E-2
4.147944320E-1,-1.497983932E-1,-1.957365684E-2,-3.275591508E-2
4.172840670E-1,-1.487331539E-1,-2.596505545E-2,-2.849498391E-2
4.197737030E-1,-1.434070021E-1,-3.768261895E-2,-2.849498391E-2
4.222633900E-1,-1.434070021E-1,-5.153064802E-2,-3.062544949E-2
4.247530260E-1,-1.370155960E-1,-6.218297780E-2,-3.062544949E-2
4.272426610E-1,-1.306242049E-1,-7.283531129E-2,-2.849498391E-2
4.297323490E-1,-1.231675670E-1,-8.561810106E-2,-2.529928461E-2
4.322219840E-1,-1.157109365E-1,-9.413997084E-2,-2.529928461E-2
4.347116190E-1,-1.050586104E-1,-9.520520270E-2,-2.210358530E-2
4.372013070E-1,-1.007976755E-1,-9.733566642E-2,-1.890788600E-2
4.396909420E-1,-9.866721183E-2,-9.840089828E-2,-1.145125460E-2
4.421806300E-1,-8.908011019E-2,-1.026618332E-1,-1.864157850E-3
4.446080780E-1,-8.268871158E-2,-1.005313694E-1,6.657706574E-3
4.470977130E-1,-7.523208112E-2,-9.840089828E-2,1.731003635E-2
4.495873490E-1,-7.203638554E-2,-9.520520270E-2,2.476666868E-2
4.520770360E-1,-7.310161740E-2,-8.987903595E-2,3.328853101E-2
4.545666710E-1,-6.457975507E-2,-8.774857223E-2,4.287562892E-2
4.570563070E-1,-6.031882018E-2,-8.881380409E-2,5.033225939E-2
4.595459940E-1,-5.605788901E-2,-8.774857223E-2,5.778888986E-2
4.620356300E-1,-5.392742157E-2,-8.348763734E-2,6.418029219E-2
4.645252650E-1,-5.073172227E-2,-8.135717362E-2,7.270215452E-2
4.670149530E-1,-5.073172227E-2,-8.348763734E-2,8.122401685E-2
4.695045880E-1,-4.434032366E-2,-8.135717362E-2,8.122401685E-2
4.719942760E-1,-4.434032366E-2,-7.709623873E-2,8.441971987E-2
4.744247960E-1,-3.794892505E-2,-7.070484012E-2,9.081111848E-2
4.769144320E-1,-3.475322574E-2,-6.644391268E-2,8.974587917E-2
4.794040670E-1,-3.262276202E-2,-6.111774594E-2,9.081111848E-2
4.818937550E-1,-3.049229458E-2,-5.685681105E-2,8.761541545E-2
4.843833900E-1,-2.729659714E-2,-5.259587988E-2,8.974587917E-2
4.868730260E-1,-2.623136342E-2,-5.579157919E-2,8.974587917E-2
4.893627130E-1,-1.983996481E-2,-5.153064802E-2,8.974587917E-2
4.918523490E-1,-1.451379992E-2,-5.153064802E-2,8.974587917E-2
4.943419840E-1,-1.344856713E-2,-5.046541616E-2,9.294158220E-2
4.968316710E-1,-7.057168987E-3,-4.513924941E-2,9.400681406E-2
4.993213070E-1,-4.926702939E-3,-3.768261895E-2,9.400681406E-2
5.018109940E-1,3.994623839E-4,-2.809552103E-2,8.974587917E-2
5.042202650E-1,7.856093347E-3,-2.063889056E-2,9.081111848E-2
5.067099010E-1,1.211702544E-2,-6.924014539E-3,8.974587917E-2
5.091995360E-1,1.744319126E-2,7.989247330E-3,8.761541545E-2
5.116892240E-1,2.170412242E-2,1.757634431E-2,8.548495173E-2
5.141788590E-1,2.489982173E-2,2.396774292E-2,8.015878499E-2
5.166684940E-1,2.703028731E-2,2.609820850E-2,7.696308941E-2
5.191581820E-1,3.555215150E-2,2.609820850E-2,7.696308941E-2
5.216478170E-1,3.874785081E-2,2.822867595E-2,7.376738638E-2
5.241374530E-1,3.981308267E-2,2.716344222E-2,7.270215452E-2
5.266271400E-1,4.620448127E-2,2.716344222E-2,6.844121963E-2
5.291167760E-1,5.259587988E-2,2.929390781E-2,6.524552405E-2
5.316064630E-1,5.792204663E-2,2.822867595E-2,5.991935730E-2
5.340588070E-1,6.111774594E-2,3.355484083E-2,6.204982474E-2
5.365484420E-1,6.111774594E-2,2.929390781E-2,5.778888986E-2
5.390380780E-1,6.431344151E-2,2.503297664E-2,4.713656008E-2
5.415277650E-1,6.750914454E-2,3.248960897E-2,4.181039706E-2
5.440174010E-1,7.283531129E-2,3.675054014E-2,4.074516147E-2
5.465070360E-1,7.390054315E-2,3.142437339E-2,3.861469775E-2
5.489967240E-1,7.496577501E-2,2.716344222E-2,3.328853101E-2
5.514863590E-1,7.603100687E-2,2.716344222E-2,2.263620123E-2
5.539759940E-1,7.496577501E-2,2.290250920E-2,1.837527007E-2
5.564656820E-1,7.496577501E-2,1.438064594E-2,8.788172156E-3
5.589553170E-1,7.390054315E-2,-5.326165119E-4,3.462007269E-3
5.614450050E-1,6.750914454E-2,-1.651111245E-2,-1.864157850E-3
5.638734420E-1,6.644391268E-2,-2.916075476E-2,-1.864157850E-3
5.663620880E-1,6.324820966E-2,-4.194355011E-2,-5.059856921E-3
5.688507340E-1,5.898727849E-2,-5.259587988E-2,-8.255556226E-3
5.713393800E-1,6.218297780E-2,-5.792204663E-2,-1.145125460E-2
5.738280260E-1,6.005251035E-2,-6.111774594E-2,-1.251648832E-2
5.763167240E-1,5.898727849E-2,-6.111774594E-2,-1.890788600E-2
5.788053690E-1,6.324820966E-2,-5.898727849E-2,-2.529928461E-2
5.812940150E-1,6.431344151E-2,-5.685681105E-2,-2.956021577E-2
5.837827130E-1,6.537867337E-2,-4.726971686E-2,-3.382114694E-2
5.862713070E-1,6.431344151E-2,-3.661738336E-2,-3.914731368E-2
5.887599530E-1,6.857437640E-2,-2.383458801E-2,-4.340824485E-2
5.912486510E-1,7.496577501E-2,-1.438064594E-2,-4.873441160E-2
5.936909420E-1,7.709623873E-2,-7.989247330E-3,-5.725627393E-2
5.961795880E-1,7.709623873E-2,-1.597849536E-3,-6.258244067E-2
5.986682340E-1,7.709623873E-2,2.663082443E-3,-7.110430300E-2
6.011568800E-1,7.816147059E-2,1.011971384E-2,-7.749570161E-2
6.036455260E-1,8.348763734E-2,1.651111245E-2,-8.175663650E-2
6.061342240E-1,7.922670245E-2,1.970681176E-2,-8.708280325E-2
6.086228690E-1,8.135717362E-2,2.290250920E-2,-9.240896255E-2
6.111115150E-1,8.348763734E-2,2.929390781E-2,-1.019960642E-1
6.136001610E-1,7.816147059E-2,3.462007269E-2,-1.030612960E-1
6.160888070E-1,7.603100687E-2,3.035914153E-2,-1.062569916E-1
6.185774530E-1,7.283531129E-2,2.822867595E-2,-1.073222235E-1
6.210661510E-1,6.537867337E-2,2.077204362E-2,-1.083874628E-1
6.235080780E-1,5.792204663E-2,5.858781748E-3,-1.062569916E-1
6.259967240E-1,5.579157919E-2,-5.858781748E-3,-9.560466558E-2
6.284853690E-1,5.366111174E-2,-2.063889056E-2,-8.708280325E-2
6.309740150E-1,4.726971686E-2,-2.809552103E-2,-8.175663650E-2
6.334626610E-1,4.300878197E-2,-2.916075476E-2,-7.216953486E-2
6.359513590E-1,3.661738336E-2,-3.342168778E-2,-6.151720881E-2
6.384400050E-1,2.916075476E-2,-3.555215150E-2,-5.299534276E-2
6.409286510E-1,2.916075476E-2,-3.129122034E-2,-4.553871229E-2
6.434172960E-1,2.809552103E-2,-2.703028731E-2,-3.488638252E-2
6.459059420E-1,2.596505545E-2,-2.383458801E-2,-2.529928461E-2
6.483945880E-1,1.850842312E-2,-2.170412242E-2,-2.103835158E-2
6.508832860E-1,1.318225823E-2,-1.544587873E-2,-1.571218669E-2
6.533261510E-1,1.105179265E-2,-1.118494663E-2,-8.255556226E-3
6.558147960E-1,5.725627299E-3,-6.924014539E-3,-2.929390874E-3
6.583034420E-1,4.660394508E-3,-2.663082443E-3,1.331541222E-3
6.607920880E-1,1.464695437E-3,1.597849536E-3,9.853405878E-3
6.632807340E-1,-5.991935730E-3,-5.326165119E-4,1.198387146E-2
6.657694320E-1,-1.025286783E-2,-1.011971384E-2,1.517957076E-2
6.682580780E-1,-1.770949923E-2,-1.438064594E-2,2.370143496E-2
6.707467240E-1,-1.877473295E-2,-2.383458801E-2,2.902759984E-2
6.732353690E-1,-2.303566411E-2,-3.235645220E-2,3.541899845E-2
6.757240150E-1,-2.410089783E-2,-3.661738336E-2,4.074516147E-2
6.782126610E-1,-2.942706272E-2,-4.300878197E-2,3.861469775E-2
6.807013590E-1,-2.942706272E-2,-4.300878197E-2,4.820179567E-2
6.831403170E-1,-3.581846133E-2,-3.768261895E-2,5.459319428E-2
6.856289630E-1,-3.581846133E-2,-3.555215150E-2,5.778888986E-2
6.881176090E-1,-3.581846133E-2,-3.235645220E-2,6.098458916E-2
6.906062550E-1,-4.007939249E-2,-2.383458801E-2,6.311506033E-2
6.930949010E-1,-4.434032366E-2,-1.331541315E-2,6.631075591E-2
6.955835990E-1,-4.753602296E-2,-7.989247330E-3,6.844121963E-2
6.980722440E-1,-4.860125855E-2,5.326165119E-4,7.057169080E-2
7.005608900E-1,-5.392742157E-2,9.054481052E-3,7.057169080E-2
7.030495360E-1,-6.244928762E-2,1.225017942E-2,6.631075591E-2
7.055381820E-1,-6.457975507E-2,1.438064594E-2,5.565842614E-2
7.080268280E-1,-6.564498693E-2,1.438064594E-2,5.565842614E-2
7.105155260E-1,-7.523208112E-2,1.118494663E-2,5.459319428E-2
7.129555260E-1,-8.162347972E-2,7.989247330E-3,5.246272683E-2
7.154442240E-1,-8.588441461E-2,5.326165119E-4,4.607132822E-2
7.179328170E-1,-8.908011019E-2,-4.793548491E-3,4.074516147E-2
7.204214630E-1,-9.334104508E-2,-1.544587873E-2,3.861469775E-2
7.229101090E-1,-9.866721183E-2,-2.276935615E-2,3.541899845E-2
7.253988070E-1,-1.029281393E-1,-2.916075476E-2,2.689713426E-2
7.278874530E-1,-1.103847697E-1,-3.661738336E-2,2.263620123E-2
7.303760990E-1,-1.103847697E-1,-3.981308267E-2,1.944050193E-2
7.328647440E-1,-1.125152409E-1,-3.981308267E-2,1.411433797E-2
7.353533900E-1,-1.135804728E-1,-3.874785081E-2,4.527240526E-3
7.378420360E-1,-1.125152409E-1,-3.235645220E-2,2.663082560E-4
7.403307340E-1,-1.093195379E-1,-2.916075476E-2,-9.320789017E-3
7.427722960E-1,-1.082543060E-1,-2.703028731E-2,-1.890788600E-2
7.452609420E-1,-9.973244369E-2,-2.383458801E-2,-2.529928461E-2
7.477495880E-1,-9.866721183E-2,-1.651111245E-2,-3.808208182E-2
7.502382340E-1,-9.227581322E-2,-9.054481052E-3,-4.660394415E-2
7.527268800E-1,-8.801487833E-2,-5.858781748E-3,-5.299534276E-2
7.552155780E-1,-8.375394344E-2,2.663082443E-3,-6.577813625E-2
7.577042240E-1,-8.055824786E-2,1.011971384E-2,-7.749570161E-2
7.601928690E-1,-8.162347972E-2,1.544587873E-2,-8.495233208E-2
7.626815150E-1,-7.416684926E-2,1.864157803E-2,-8.708280325E-2
7.651701610E-1,-7.203638554E-2,1.544587873E-2,-9.773512930E-2
7.676588070E-1,-7.310161740E-2,1.118494663E-2,-1.030612960E-1
7.701475050E-1,-7.523208112E-2,3.728315700E-3,-1.051917598E-1
7.725879210E-1,-6.777545065E-2,-3.728315700E-3,-1.051917598E-1
7.750765670E-1,-6.777545065E-2,-1.438064594E-2,-1.062569916E-1
7.775652130E-1,-7.203638554E-2,-2.276935615E-2,-1.009308323E-1
7.800538590E-1,-6.351451576E-2,-3.342168778E-2,-9.560466558E-2
7.825425050E-1,-5.605788901E-2,-4.194355011E-2,-9.453943372E-2
7.850312030E-1,-5.286218971E-2,-4.726971686E-2,-8.708280325E-2
7.875198490E-1,-5.286218971E-2,-5.472634733E-2,-7.856093347E-2
7.900084940E-1,-4.647079110E-2,-6.005251035E-2,-7.110430300E-2
7.924971400E-1,-3.688369319E-2,-6.218297780E-2,-5.938674137E-2
7.949857860E-1,-2.836182900E-2,-6.431344151E-2,-5.086487532E-2
7.974744320E-1,-1.770949923E-2,-6.218297780E-2,-3.808208182E-2
7.999631300E-1,-1.344856713E-2,-5.898727849E-2,-2.956021577E-2
8.024068800E-1,-4.926702939E-3,-5.579157919E-2,-1.890788600E-2
8.048955260E-1,6.790860556E-3,-5.046541616E-2,-1.145125460E-2
8.073841710E-1,9.986559860E-3,-4.407401755E-2,-2.929390874E-3
8.098728690E-1,1.637795754E-2,-3.448691964E-2,2.396774245E-3
8.123614630E-1,2.596505545E-2,-2.809552103E-2,6.657706574E-3
8.148501610E-1,3.342168778E-2,-2.170412242E-2,7.722939365E-3
8.173388070E-1,3.981308267E-2,-1.850842312E-2,8.788172156E-3
8.198274530E-1,4.194355011E-2,-1.331541315E-2,6.657706574E-3
8.223160990E-1,4.726971686E-2,-1.438064594E-2,4.527240526E-3
8.248047440E-1,4.940018058E-2,-1.331541315E-2,2.663082560E-4
8.272933900E-1,4.726971686E-2,-1.544587873E-2,-2.929390874E-3
8.297820880E-1,5.153064802E-2,-2.276935615E-2,-1.864157850E-3
8.322210990E-1,5.366111174E-2,-2.916075476E-2,-3.994623665E-3
8.347097440E-1,5.153064802E-2,-3.874785081E-2,-9.320789017E-3
8.371983900E-1,4.940018058E-2,-4.513924941E-2,-1.038602181E-2
8.396870360E-1,4.833494872E-2,-5.046541616E-2,-1.038602181E-2
8.421756820E-1,4.940018058E-2,-5.579157919E-2,-8.255556226E-3
8.446643800E-1,4.513924941E-2,-5.472634733E-2,-9.320789017E-3
8.471530260E-1,4.620448127E-2,-5.259587988E-2,-1.038602181E-2
8.496416710E-1,4.407401755E-2,-4.620448127E-2,-1.464695390E-2
8.521303170E-1,4.620448127E-2,-3.768261895E-2,-1.784265228E-2
8.546189630E-1,4.833494872E-2,-3.022598661E-2,-1.997311972E-2
8.571076090E-1,4.513924941E-2,-2.276935615E-2,-2.529928461E-2
8.595963070E-1,4.407401755E-2,-1.438064594E-2,-2.849498391E-2
8.620374010E-1,4.194355011E-2,-1.011971384E-2,-3.808208182E-2
8.645260460E-1,4.087831825E-2,-5.858781748E-3,-4.447348043E-2
8.670146920E-1,3.768261895E-2,-5.326165119E-4,-5.299534276E-2
8.695033380E-1,3.448691964E-2,1.597849536E-3,-5.193011090E-2
8.719919840E-1,3.342168778E-2,5.326165119E-4,-5.938674137E-2
8.744806820E-1,2.916075476E-2,1.597849536E-3,-6.577813625E-2
8.769693280E-1,2.596505545E-2,4.793548491E-3,-6.684337556E-2
8.794579740E-1,2.596505545E-2,6.924014539E-3,-7.536523789E-2
8.819466190E-1,2.170412242E-2,1.118494663E-2,-7.643046975E-2
8.844352650E-1,1.850842312E-2,1.544587873E-2,-7.749570161E-2
8.869239110E-1,1.957365684E-2,2.077204362E-2,-8.282186836E-2
8.894126090E-1,2.063889056E-2,2.822867595E-2,-8.495233208E-2
8.918547960E-1,1.637795754E-2,3.142437339E-2,-8.601756394E-2
8.943434420E-1,1.744319126E-2,3.675054014E-2,-8.282186836E-2
8.968320880E-1,1.531272475E-2,4.207670316E-2,-7.856093347E-2
8.993207860E-1,1.424749196E-2,4.420717061E-2,-7.216953486E-2
9.018093800E-1,1.424749196E-2,4.207670316E-2,-6.577813625E-2
9.042980780E-1,1.531272475E-2,3.781577200E-2,-6.258244067E-2
9.067867240E-1,1.211702544E-2,3.675054014E-2,-5.299534276E-2
9.092753690E-1,1.424749196E-2,3.568530455E-2,-4.021254554E-2
9.117640150E-1,1.211702544E-2,2.822867595E-2,-3.275591508E-2
9.142527130E-1,1.424749196E-2,2.503297664E-2,-2.210358530E-2
9.167413590E-1,1.531272475E-2,2.077204362E-2,-6.125089712E-3
9.192300050E-1,1.318225823E-2,1.757634431E-2,6.657706574E-3
9.216505260E-1,1.105179265E-2,1.651111245E-2,1.944050193E-2
9.241391710E-1,9.986559860E-3,1.544587873E-2,3.328853101E-2
9.266278170E-1,8.921326138E-3,1.438064594E-2,4.394086078E-2
9.291164630E-1,1.211702544E-2,1.438064594E-2,5.672365800E-2
9.316051090E-1,4.660394508E-3,1.118494663E-2,6.737598777E-2
9.340938070E-1,-2.796236658E-3,4.793548491E-3,8.122401685E-2
9.365824530E-1,-2.796236658E-3,-3.728315700E-3,9.400681406E-2
9.390710990E-1,-3.861469682E-3,-1.850842312E-2,1.046591476E-1
9.415597440E-1,-4.926702939E-3,-2.596505545E-2,1.110505462E-1
9.440483900E-1,-7.057168987E-3,-3.235645220E-2,1.217028722E-1
9.465370360E-1,-9.187635034E-3,-3.768261895E-2,1.302247345E-1
9.490257340E-1,-9.187635034E-3,-3.555215150E-2,1.366161406E-1
9.514869320E-1,-8.122402243E-3,-3.235645220E-2,1.376813650E-1
9.539755780E-1,-1.131810062E-2,-2.170412242E-2,1.376813650E-1
9.564642240E-1,-1.557903271E-2,-6.924014539E-3,1.344856620E-1
9.589528690E-1,-9.187635034E-3,6.924014539E-3,1.334204376E-1
9.614415150E-1,-1.025286783E-2,1.864157803E-2,1.259638071E-1
9.639302130E-1,-1.131810062E-2,3.355484083E-2,1.153114736E-1
9.664188590E-1,-8.122402243E-3,4.633763805E-2,1.078548431E-1
9.689075050E-1,-1.731003635E-3,5.379426852E-2,1.014634445E-1
9.713961510E-1,-2.796236658E-3,6.018566713E-2,8.548495173E-2
9.738847960E-1,-6.657706108E-4,6.551183015E-2,7.163692266E-2
9.763734420E-1,3.595161485E-3,7.190322876E-2,6.311506033E-2
9.788621400E-1,8.921326138E-3,7.403369248E-2,5.459319428E-2
9.813028170E-1,1.531272475E-2,7.403369248E-2,4.287562892E-2
9.837914630E-1,1.744319126E-2,7.083799690E-2,3.541899845E-2
9.862801090E-1,1.850842312E-2,6.657706201E-2,2.583190054E-2
9.887687550E-1,2.063889056E-2,6.231613085E-2,1.944050193E-2
9.912574010E-1,2.276935615E-2,5.272903293E-2,1.624480449E-2
9.937460990E-1,2.383458801E-2,4.314193875E-2,1.731003635E-2
9.962347440E-1,2.383458801E-2,3.248960897E-2,1.944050193E-2
9.987233900E-1,2.596505545E-2,2.396774292E-2,2.263620123E-2
1.001212036E0,2.703028731E-2,1.438064594E-2,2.583190054E-2
1.003700682E0,2.809552103E-2,1.011971384E-2,2.902759984E-2
1.006189328E0,3.129122034E-2,9.054481052E-3,3.541899845E-2
1.008678026E0,3.129122034E-2,9.054481052E-3,3.967992961E-2
1.011120474E0,3.022598661E-2,1.225017942E-2,4.820179567E-2
1.013609119E0,3.448691964E-2,1.544587873E-2,5.459319428E-2
1.016097817E0,3.235645220E-2,2.290250920E-2,5.565842614E-2
1.018586411E0,3.555215150E-2,2.822867595E-2,5.885412544E-2
1.021075057E0,3.235645220E-2,3.248960897E-2,6.098458916E-2
1.023563755E0,2.809552103E-2,3.142437339E-2,5.991935730E-2
1.026052401E0,2.596505545E-2,3.248960897E-2,5.991935730E-2
1.028541046E0,2.276935615E-2,2.716344222E-2,6.418029219E-2
1.031029692E0,2.276935615E-2,2.183727734E-2,6.204982474E-2
1.033518338E0,2.170412242E-2,2.183727734E-2,5.885412544E-2
1.036007036E0,1.318225823E-2,1.438064594E-2,5.885412544E-2
1.038495682E0,4.660394508E-3,4.793548491E-3,5.033225939E-2
1.040946255E0,1.464695437E-3,5.326165119E-4,4.394086078E-2
1.043434901E0,-7.057168987E-3,-4.793548491E-3,4.287562892E-2
1.045923546E0,-9.187635034E-3,-7.989247330E-3,3.967992961E-2
1.048412192E0,-1.557903271E-2,-9.054481052E-3,3.435376659E-2
1.050900838E0,-1.877473295E-2,-1.011971384E-2,2.796236612E-2
1.053389536E0,-2.516612969E-2,-1.011971384E-2,2.263620123E-2
1.055878182E0,-2.942706272E-2,-7.989247330E-3,1.944050193E-2
1.058366828E0,-3.049229458E-2,-9.054481052E-3,1.731003635E-2
1.060855474E0,-3.368799388E-2,-7.989247330E-3,1.411433797E-2
1.063344119E0,-3.581846133E-2,-5.858781748E-3,1.091863867E-2
1.065832765E0,-4.220985994E-2,-6.924014539E-3,5.592473317E-3
1.068321463E0,-4.540555924E-2,-1.118494663E-2,3.462007269E-3
1.070752817E0,-4.966649041E-2,-1.011971384E-2,4.527240526E-3
1.073240682E0,-5.073172227E-2,-1.011971384E-2,4.527240526E-3
1.075728546E0,-5.179695413E-2,-2.703028731E-2,5.592473317E-3
1.078216411E0,-5.392742157E-2,-3.448691964E-2,8.788172156E-3
1.080704276E0,-6.138405204E-2,-4.620448127E-2,1.304910425E-2
1.083192140E0,-6.138405204E-2,-5.685681105E-2,1.411433797E-2
1.085680005E0,-5.925358832E-2,-6.111774594E-2,2.476666868E-2
1.088167869E0,-5.818835273E-2,-6.644391268E-2,2.902759984E-2
1.090655734E0,-6.138405204E-2,-7.709623873E-2,2.689713426E-2
1.093143599E0,-6.244928762E-2,-7.603100687E-2,3.115806542E-2
1.095631463E0,-6.031882018E-2,-7.603100687E-2,3.541899845E-2
1.098119328E0,-5.925358832E-2,-7.177007198E-2,3.541899845E-2
1.100568859E0,-5.925358832E-2,-6.750914454E-2,3.648423031E-2
1.103056724E0,-5.712312087E-2,-6.111774594E-2,3.754946589E-2
1.105544588E0,-5.818835273E-2,-5.472634733E-2,3.435376659E-2
1.108032453E0,-5.818835273E-2,-5.153064802E-2,3.435376659E-2
1.110520317E0,-5.712312087E-2,-4.620448127E-2,2.902759984E-2
1.113008182E0,-5.286218971E-2,-3.874785081E-2,2.796236612E-2
1.115496046E0,-5.179695413E-2,-3.235645220E-2,2.370143496E-2
1.117983911E0,-5.073172227E-2,-2.809552103E-2,1.731003635E-2
1.120471776E0,-5.179695413E-2,-1.850842312E-2,8.788172156E-3
1.122959640E0,-5.392742157E-2,-1.011971384E-2,3.462007269E-3
1.125447505E0,-4.966649041E-2,-1.597849536E-3,-6.125089712E-3
1.127935369E0,-5.073172227E-2,1.011971384E-2,-1.358172111E-2
1.130385994E0,-5.073172227E-2,1.757634431E-2,-2.423405088E-2
1.132873859E0,-4.966649041E-2,2.396774292E-2,-2.956021577E-2
1.135361724E0,-5.286218971E-2,2.716344222E-2,-3.169068322E-2
1.137849588E0,-5.605788901E-2,3.035914153E-2,-3.914731368E-2
1.140337453E0,-5.286218971E-2,3.355484083E-2,-4.127778113E-2
1.142825317E0,-5.286218971E-2,3.568530455E-2,-4.447348043E-2
1.145313182E0,-5.286218971E-2,4.101147130E-2,-4.234301299E-2
1.147801046E0,-5.073172227E-2,4.314193875E-2,-4.021254554E-2
1.150288911E0,-5.179695413E-2,4.207670316E-2,-4.021254554E-2
1.152776776E0,-5.179695413E-2,3.994623944E-2,-3.488638252E-2
1.155264640E0,-4.753602296E-2,3.142437339E-2,-2.423405088E-2
1.157752505E0,-4.753602296E-2,2.290250920E-2,-1.890788600E-2
1.160201411E0,-4.327509180E-2,1.438064594E-2,-1.864157850E-3
1.162689276E0,-3.794892505E-2,5.858781748E-3,1.517957076E-2
1.165177140E0,-3.262276202E-2,-5.326165119E-4,2.902759984E-2
1.167665005E0,-2.410089783E-2,-7.989247330E-3,4.394086078E-2
1.170152869E0,-1.664426550E-2,-2.663082443E-3,6.204982474E-2
1.172640734E0,-9.187635034E-3,5.326165119E-4,8.015878499E-2
1.175128599E0,3.994623839E-4,2.663082443E-3,9.720251709E-2
1.177616463E0,9.986559860E-3,6.924014539E-3,1.099853069E-1
1.180104328E0,1.531272475E-2,1.651111245E-2,1.270290315E-1
1.182592192E0,2.703028731E-2,2.503297664E-2,1.419423074E-1
1.185080057E0,3.448691964E-2,3.355484083E-2,1.568555683E-1
1.187567921E0,4.194355011E-2,3.994623944E-2,1.728340536E-1
1.190018078E0,5.153064802E-2,4.314193875E-2,1.781602204E-1
1.192505942E0,5.579157919E-2,5.059856921E-2,1.888125539E-1
1.194993807E0,6.005251035E-2,5.485950038E-2,1.973344237E-1
1.197481671E0,6.644391268E-2,6.018566713E-2,2.015953511E-1
1.199969536E0,6.857437640E-2,6.551183015E-2,2.037258148E-1
1.202457401E0,6.644391268E-2,6.657706201E-2,2.090519816E-1
1.204945265E0,6.537867337E-2,6.764229387E-2,2.111824453E-1
1.207433130E0,6.431344151E-2,6.977276504E-2,2.111824453E-1
1.209920994E0,6.324820966E-2,6.764229387E-2,2.047910541E-1
1.212408859E0,6.431344151E-2,6.338136643E-2,2.069215178E-1
1.214896724E0,6.111774594E-2,6.125089899E-2,2.058562785E-1
1.217384588E0,5.898727849E-2,6.018566713E-2,1.973344237E-1
1.219847453E0,5.792204663E-2,5.592473224E-2,1.920082569E-1
1.222335317E0,5.898727849E-2,5.379426852E-2,1.898777932E-1
1.224823182E0,5.579157919E-2,4.314193875E-2,1.802906841E-1
1.227311046E0,5.366111174E-2,4.527240247E-2,1.717688292E-1
1.229798911E0,5.579157919E-2,4.633763805E-2,1.664426625E-1
1.232286776E0,5.046541616E-2,4.420717061E-2,1.579207927E-1
1.234774640E0,4.407401755E-2,4.420717061E-2,1.462032348E-1
1.237262505E0,4.407401755E-2,4.953333735E-2,1.408770680E-1
1.239750369E0,3.981308267E-2,4.953333735E-2,1.291595101E-1
1.242238234E0,3.661738336E-2,4.633763805E-2,1.174419373E-1
1.244726099E0,3.342168778E-2,4.420717061E-2,1.078548431E-1
1.247213963E0,2.596505545E-2,4.314193875E-2,9.826774895E-2
1.249645057E0,1.744319126E-2,4.314193875E-2,8.974587917E-2
1.252132921E0,1.318225823E-2,4.101147130E-2,8.015878499E-2
1.254620786E0,1.105179265E-2,3.568530455E-2,6.737598777E-2
1.257108651E0,2.529928461E-3,3.462007269E-2,5.885412544E-2
1.259596515E0,-3.861469682E-3,3.142437339E-2,5.246272683E-2
1.262084380E0,-1.238333434E-2,2.609820850E-2,4.181039706E-2
1.264572244E0,-1.344856713E-2,2.077204362E-2,3.009283356E-2
1.267060109E0,-1.451379992E-2,1.544587873E-2,2.476666868E-2
1.269547974E0,-2.090519853E-2,1.757634431E-2,1.517957076E-2
1.272035838E0,-2.623136342E-2,1.225017942E-2,4.527240526E-3
1.274523703E0,-2.197043039E-2,1.011971384E-2,-2.929390874E-3
1.277011567E0,-2.623136342E-2,1.438064594E-2,-1.038602181E-2
1.279486515E0,-2.410089783E-2,1.651111245E-2,-1.571218669E-2
1.281974380E0,-2.303566411E-2,1.651111245E-2,-2.636451647E-2
1.284462244E0,-2.303566411E-2,2.503297664E-2,-3.275591508E-2
1.286950109E0,-2.303566411E-2,3.248960897E-2,-4.234301299E-2
1.289437974E0,-2.090519853E-2,4.420717061E-2,-5.086487532E-2
1.291925838E0,-2.090519853E-2,5.059856921E-2,-6.045197323E-2
1.294413703E0,-2.197043039E-2,5.912043154E-2,-6.684337556E-2
1.296901567E0,-1.983996481E-2,6.657706201E-2,-7.216953486E-2
1.299389432E0,-2.090519853E-2,6.870753318E-2,-7.536523789E-2
1.301877296E0,-2.623136342E-2,6.338136643E-2,-8.282186836E-2
1.304365161E0,-2.836182900E-2,6.125089899E-2,-8.708280325E-2
1.306853026E0,-3.475322574E-2,5.912043154E-2,-8.601756394E-2
1.309281776E0,-4.007939249E-2,4.846810177E-2,-8.282186836E-2
1.311769640E0,-4.007939249E-2,3.142437339E-2,-7.856093347E-2
1.314257505E0,-4.647079110E-2,1.970681176E-2,-7.323476672E-2
1.316745369E0,-5.073172227E-2,9.054481052E-3,-6.790860742E-2
1.319233234E0,-4.966649041E-2,-5.858781748E-3,-5.832150951E-2
1.321721099E0,-5.392742157E-2,-1.225017942E-2,-4.766917601E-2
1.324208963E0,-5.605788901E-2,-1.544587873E-2,-3.808208182E-2
1.326696828E0,-5.925358832E-2,-1.225017942E-2,-2.636451647E-2
1.329184692E0,-5.925358832E-2,-1.011971384E-2,-1.677742042E-2
1.331672557E0,-6.138405204E-2,-5.858781748E-3,-5.059856921E-3
1.334160421E0,-6.564498693E-2,-2.663082443E-3,2.396774245E-3
1.336648286E0,-6.564498693E-2,1.597849536E-3,9.853405878E-3
1.339098026E0,-6.138405204E-2,2.663082443E-3,1.624480449E-2
1.341585890E0,-5.925358832E-2,5.326165119E-4,2.796236612E-2
1.344073755E0,-5.605788901E-2,5.326165119E-4,3.222329915E-2
1.346561619E0,-5.499265343E-2,-5.326165119E-4,3.435376659E-2
1.349049484E0,-5.712312087E-2,-5.858781748E-3,4.074516147E-2
1.351537349E0,-5.392742157E-2,-6.924014539E-3,3.967992961E-2
1.354025213E0,-5.286218971E-2,-2.663082443E-3,4.287562892E-2
1.356513078E0,-5.286218971E-2,-5.326165119E-4,4.500609636E-2
1.359000942E0,-5.392742157E-2,1.597849536E-3,4.287562892E-2
1.361488807E0,-5.605788901E-2,7.989247330E-3,4.287562892E-2
1.363976671E0,-6.031882018E-2,7.989247330E-3,3.754946589E-2
1.366464536E0,-5.925358832E-2,1.651111245E-2,3.435376659E-2
1.368913963E0,-5.925358832E-2,2.503297664E-2,3.115806542E-2
1.371401828E0,-6.351451576E-2,2.609820850E-2,2.902759984E-2
1.373889692E0,-6.884068251E-2,3.248960897E-2,2.796236612E-2
1.376377557E0,-6.457975507E-2,3.568530455E-2,2.476666868E-2
1.378865421E0,-6.777545065E-2,4.101147130E-2,1.731003635E-2
1.381353286E0,-6.671021879E-2,4.527240247E-2,1.837527007E-2
1.383841151E0,-7.310161740E-2,5.059856921E-2,1.731003635E-2
1.386329015E0,-6.884068251E-2,5.166380107E-2,1.517957076E-2
1.388816880E0,-6.564498693E-2,5.166380107E-2,1.731003635E-2
1.391304744E0,-6.671021879E-2,5.379426852E-2,2.157096937E-2
1.393792609E0,-6.990591437E-2,5.272903293E-2,2.476666868E-2
1.396280474E0,-6.671021879E-2,5.272903293E-2,3.115806542E-2
1.398731359E0,-6.564498693E-2,5.379426852E-2,4.074516147E-2
1.401219224E0,-6.671021879E-2,4.846810177E-2,4.713656008E-2
1.403707088E0,-6.671021879E-2,4.633763805E-2,5.885412544E-2
1.406194953E0,-6.564498693E-2,4.207670316E-2,6.950645149E-2
1.408682817E0,-6.351451576E-2,3.781577200E-2,8.548495173E-2
1.411170682E0,-6.138405204E-2,3.675054014E-2,1.014634445E-1
1.413658546E0,-5.925358832E-2,3.888100386E-2,1.142462417E-1
1.416146411E0,-6.138405204E-2,3.994623944E-2,1.270290315E-1
1.418634276E0,-5.925358832E-2,4.314193875E-2,1.376813650E-1
1.421122140E0,-5.818835273E-2,4.953333735E-2,1.536598653E-1
1.423610005E0,-5.712312087E-2,5.166380107E-2,1.611164957E-1
1.426097869E0,-5.286218971E-2,5.805519968E-2,1.728340536E-1
1.428548859E0,-4.860125855E-2,6.018566713E-2,1.802906841E-1
1.431036724E0,-4.647079110E-2,6.231613085E-2,1.866820902E-1
1.433524588E0,-4.007939249E-2,6.444659829E-2,1.909430176E-1
1.436012453E0,-3.475322574E-2,6.125089899E-2,1.952039450E-1
1.438500317E0,-3.049229458E-2,5.698996782E-2,1.994648874E-1
1.440988182E0,-2.836182900E-2,5.485950038E-2,1.994648874E-1
1.443476046E0,-1.877473295E-2,5.698996782E-2,2.005301118E-1
1.445963911E0,-1.344856713E-2,5.805519968E-2,1.994648874E-1
1.448451776E0,-9.187635034E-3,6.444659829E-2,1.952039450E-1
1.450939640E0,3.994623839E-4,6.764229387E-2,1.888125539E-1
1.453427505E0,1.318225823E-2,7.509893179E-2,1.866820902E-1
1.455915369E0,1.105179265E-2,8.362079412E-2,1.770949960E-1
1.458364432E0,1.637795754E-2,8.575125784E-2,1.707035899E-1
1.460852296E0,2.063889056E-2,9.320788831E-2,1.643121988E-1
1.463340161E0,2.489982173E-2,1.027949899E-1,1.515294015E-1
1.465828026E0,2.703028731E-2,1.049254537E-1,1.408770680E-1
1.468315890E0,3.022598661E-2,1.038602218E-1,1.344856620E-1
1.470803755E0,3.235645220E-2,1.017297506E-1,1.259638071E-1
1.473291619E0,2.916075476E-2,1.017297506E-1,1.099853069E-1
1.475779484E0,2.703028731E-2,9.427312016E-2,9.826774895E-2
1.478267349E0,2.703028731E-2,8.681648970E-2,9.507204592E-2
1.480755213E0,2.596505545E-2,8.255556226E-2,8.335448056E-2
1.483243078E0,1.531272475E-2,6.870753318E-2,7.270215452E-2
1.485730942E0,1.318225823E-2,6.444659829E-2,6.737598777E-2
1.488182974E0,4.660394508E-3,5.698996782E-2,5.778888986E-2
1.490670838E0,1.464695437E-3,4.953333735E-2,5.459319428E-2
1.493158703E0,-5.991935730E-3,3.675054014E-2,4.926702753E-2
1.495646567E0,-1.131810062E-2,2.822867595E-2,4.607132822E-2
1.498134432E0,-1.877473295E-2,2.183727734E-2,4.181039706E-2
1.500622296E0,-2.303566411E-2,1.651111245E-2,3.435376659E-2
1.503110161E0,-2.623136342E-2,1.651111245E-2,3.648423031E-2
1.505598026E0,-3.155753016E-2,1.331541315E-2,3.541899845E-2
1.508085890E0,-3.794892505E-2,1.331541315E-2,3.328853101E-2
1.510573755E0,-3.901416063E-2,1.757634431E-2,2.689713426E-2
1.513061619E0,-4.114462435E-2,1.970681176E-2,2.689713426E-2
1.515549484E0,-4.007939249E-2,2.396774292E-2,2.157096937E-2
1.517997349E0,-3.688369319E-2,2.609820850E-2,1.624480449E-2
1.520485213E0,-3.475322574E-2,2.929390781E-2,1.304910425E-2
1.522973078E0,-3.475322574E-2,2.929390781E-2,8.788172156E-3
1.525460942E0,-3.368799388E-2,3.248960897E-2,2.396774245E-3
1.527948807E0,-2.729659714E-2,3.568530455E-2,1.331541222E-3
1.530436671E0,-2.303566411E-2,3.568530455E-2,-2.929390874E-3
1.532924536E0,-1.983996481E-2,3.994623944E-2,-3.994623665E-3
1.535412401E0,-1.983996481E-2,4.314193875E-2,-1.145125460E-2
1.537900265E0,-1.451379992E-2,4.846810177E-2,-1.571218669E-2
1.540388130E0,-1.025286783E-2,5.379426852E-2,-1.358172111E-2
1.542875994E0,-7.057168987E-3,5.912043154E-2,-1.251648832E-2
1.545363859E0,-5.991935730E-3,6.657706201E-2,-1.890788600E-2
1.547813494E0,-4.926702939E-3,6.764229387E-2,-1.677742042E-2
1.550301359E0,-7.057168987E-3,6.977276504E-2,-1.464695390E-2
1.552789224E0,-4.926702939E-3,7.509893179E-2,-1.145125460E-2
1.555277088E0,-1.731003635E-3,7.616416365E-2,-6.125089712E-3
1.557764953E0,-4.926702939E-3,7.616416365E-2,-2.929390874E-3
1.560252817E0,-3.861469682E-3,7.722939551E-2,3.462007269E-3
1.562740682E0,-5.991935730E-3,7.616416365E-2,8.788172156E-3
1.565228546E0,-1.451379992E-2,7.616416365E-2,1.091863867E-2
1.567716411E0,-1.557903271E-2,7.935985923E-2,1.731003635E-2
1.570204276E0,-2.090519853E-2,8.362079412E-2,2.476666868E-2
1.572692140E0,-2.623136342E-2,8.468602598E-2,2.796236612E-2
1.575180005E0,-3.155753016E-2,8.575125784E-2,3.222329915E-2
1.577628078E0,-3.581846133E-2,9.001219273E-2,3.861469775E-2
1.580115317E0,-4.327509180E-2,9.746882319E-2,4.287562892E-2
1.582602505E0,-4.647079110E-2,9.640359133E-2,4.820179567E-2
1.585089744E0,-5.073172227E-2,9.640359133E-2,5.033225939E-2
1.587576984E0,-5.712312087E-2,9.959928691E-2,5.246272683E-2
1.590064224E0,-5.712312087E-2,1.049254537E-1,5.139749497E-2
1.592551463E0,-5.712312087E-2,1.091863886E-1,4.926702753E-2
1.595038651E0,-5.818835273E-2,1.070559174E-1,4.713656008E-2
1.597525890E0,-5.925358832E-2,1.113168523E-1,4.713656008E-2
1.600013130E0,-5.818835273E-2,1.134473160E-1,4.607132822E-2
1.602500369E0,-6.138405204E-2,1.113168523E-1,4.181039706E-2
1.604987557E0,-5.712312087E-2,1.059906855E-1,4.713656008E-2
1.607445057E0,-5.073172227E-2,9.959928691E-2,4.607132822E-2
1.609932296E0,-4.860125855E-2,9.001219273E-2,4.820179567E-2
1.612419536E0,-4.114462435E-2,8.255556226E-2,5.352795869E-2
1.614906724E0,-4.007939249E-2,7.616416365E-2,5.885412544E-2
1.617393963E0,-3.794892505E-2,6.551183015E-2,6.844121963E-2
1.619881203E0,-3.049229458E-2,6.125089899E-2,7.270215452E-2
1.622368442E0,-2.410089783E-2,5.805519968E-2,8.122401685E-2
1.624855630E0,-1.451379992E-2,5.805519968E-2,9.081111848E-2
1.627342869E0,-7.057168987E-3,5.912043154E-2,1.014634445E-1
1.629830109E0,1.464695437E-3,6.657706201E-2,1.110505462E-1
1.632317349E0,1.424749196E-2,7.296846062E-2,1.163767055E-1
1.634804536E0,1.957365684E-2,8.362079412E-2,1.248985752E-1
1.637264380E0,3.022598661E-2,9.746882319E-2,1.323551983E-1
1.639751619E0,3.981308267E-2,1.049254537E-1,1.376813650E-1
1.642238859E0,4.087831825E-2,1.134473160E-1,1.419423074E-1
1.644726046E0,4.726971686E-2,1.209039465E-1,1.462032348E-1
1.647213286E0,5.153064802E-2,1.283605844E-1,1.483336985E-1
1.649700526E0,5.366111174E-2,1.347519755E-1,1.525946259E-1
1.652187765E0,5.153064802E-2,1.368824393E-1,1.525946259E-1
1.654674953E0,5.472634733E-2,1.379476786E-1,1.536598653E-1
1.657162192E0,5.153064802E-2,1.358172148E-1,1.515294015E-1
1.659649432E0,5.153064802E-2,1.326215118E-1,1.483336985E-1
1.662136671E0,4.726971686E-2,1.294258088E-1,1.430075318E-1
1.664623859E0,4.300878197E-2,1.240996495E-1,1.408770680E-1
1.667076515E0,4.513924941E-2,1.198387146E-1,1.366161406E-1
1.669563755E0,3.874785081E-2,1.187734827E-1,1.302247345E-1
1.672050994E0,3.448691964E-2,1.155777797E-1,1.259638071E-1
1.674538182E0,3.448691964E-2,1.177082509E-1,1.248985752E-1
1.677025421E0,3.129122034E-2,1.177082509E-1,1.185071766E-1
1.679512661E0,2.809552103E-2,1.123820841E-1,1.121157780E-1
1.681999901E0,2.596505545E-2,1.113168523E-1,1.067896113E-1
1.684487088E0,2.383458801E-2,1.145125479E-1,1.046591476E-1
1.686974328E0,2.276935615E-2,1.145125479E-1,1.003982127E-1
1.689461567E0,1.744319126E-2,1.091863886E-1,9.400681406E-2
1.691948807E0,1.744319126E-2,1.113168523E-1,9.187635034E-2
1.694435994E0,1.744319126E-2,1.113168523E-1,9.187635034E-2
1.696894015E0,1.637795754E-2,1.113168523E-1,8.655018359E-2
1.699381255E0,1.744319126E-2,1.102516204E-1,7.909355313E-2
1.701868494E0,1.424749196E-2,1.102516204E-1,7.802832127E-2
1.704355682E0,1.531272475E-2,1.113168523E-1,7.270215452E-2
1.706842921E0,1.637795754E-2,1.134473160E-1,6.844121963E-2
1.709330161E0,2.383458801E-2,1.113168523E-1,6.631075591E-2
1.711817401E0,2.383458801E-2,1.166430190E-1,6.418029219E-2
1.714304588E0,2.383458801E-2,1.177082509E-1,5.885412544E-2
1.716791828E0,2.383458801E-2,1.219691783E-1,5.033225939E-2
1.719279067E0,2.489982173E-2,1.272953451E-1,4.713656008E-2
1.721766307E0,2.170412242E-2,1.230344176E-1,4.926702753E-2
1.724253546E0,2.170412242E-2,1.209039465E-1,4.500609636E-2
1.726710005E0,1.957365684E-2,1.187734827E-1,3.754946589E-2
1.729197244E0,2.170412242E-2,1.123820841E-1,4.287562892E-2
1.731684484E0,1.744319126E-2,1.049254537E-1,4.287562892E-2
1.734171671E0,1.850842312E-2,9.746882319E-2,3.967992961E-2
1.736658911E0,1.318225823E-2,8.894696087E-2,4.181039706E-2
1.739146151E0,8.921326138E-3,8.362079412E-2,4.607132822E-2
1.741633390E0,6.790860556E-3,8.042509109E-2,4.713656008E-2
1.744120578E0,3.994623839E-4,7.509893179E-2,5.033225939E-2
1.746607817E0,-2.796236658E-3,7.190322876E-2,5.459319428E-2
1.749095057E0,-1.731003635E-3,7.083799690E-2,5.778888986E-2
1.751582296E0,-5.991935730E-3,6.977276504E-2,6.204982474E-2
1.754069484E0,-7.057168987E-3,6.870753318E-2,6.311506033E-2
1.756528859E0,-8.122402243E-3,6.657706201E-2,6.950645149E-2
1.759016099E0,-7.057168987E-3,6.764229387E-2,6.737598777E-2
1.761503338E0,-8.122402243E-3,6.977276504E-2,6.950645149E-2
1.763990526E0,-1.131810062E-2,7.083799690E-2,7.163692266E-2
1.766477765E0,-5.991935730E-3,7.296846062E-2,7.270215452E-2
1.768965005E0,-2.796236658E-3,7.296846062E-2,7.483261824E-2
1.771452244E0,3.994623839E-4,7.083799690E-2,7.696308941E-2
1.773939432E0,3.595161485E-3,7.083799690E-2,7.909355313E-2
1.776426671E0,6.790860556E-3,7.083799690E-2,8.122401685E-2
1.778913911E0,7.856093347E-3,6.764229387E-2,8.015878499E-2
1.781401151E0,1.105179265E-2,6.870753318E-2,8.228924870E-2
1.783888338E0,1.318225823E-2,6.551183015E-2,8.761541545E-2
1.786343286E0,1.637795754E-2,5.912043154E-2,8.974587917E-2
1.788830526E0,1.318225823E-2,5.379426852E-2,9.187635034E-2
1.791317765E0,1.211702544E-2,4.527240247E-2,9.826774895E-2
1.793804953E0,1.318225823E-2,4.101147130E-2,1.078548431E-1
1.796292192E0,1.105179265E-2,3.888100386E-2,1.110505462E-1
1.798779432E0,1.105179265E-2,3.568530455E-2,1.195724085E-1
1.801266671E0,1.318225823E-2,3.142437339E-2,1.270290315E-1
1.803753859E0,1.105179265E-2,3.035914153E-2,1.334204376E-1
1.806241099E0,1.105179265E-2,2.716344222E-2,1.387466043E-1
1.808728338E0,6.790860556E-3,2.396774292E-2,1.462032348E-1
1.811215578E0,6.790860556E-3,2.396774292E-2,1.525946259E-1
1.813702765E0,4.660394508E-3,2.716344222E-2,1.547250897E-1
1.816157453E0,1.464695437E-3,2.396774292E-2,1.589860320E-1
1.818644692E0,4.660394508E-3,2.290250920E-2,1.653774232E-1
1.821131932E0,3.994623839E-4,2.290250920E-2,1.653774232E-1
1.823619119E0,-1.731003635E-3,1.864157803E-2,1.653774232E-1
1.826106359E0,-1.731003635E-3,1.651111245E-2,1.632469594E-1
1.828593599E0,-1.731003635E-3,1.651111245E-2,1.611164957E-1
1.831080838E0,-5.991935730E-3,1.651111245E-2,1.579207927E-1
1.833568026E0,-5.991935730E-3,1.225017942E-2,1.557903290E-1
1.836055265E0,-7.057168987E-3,7.989247330E-3,1.504641622E-1
1.838542505E0,-5.991935730E-3,2.663082443E-3,1.462032348E-1
1.841029744E0,-3.861469682E-3,-1.597849536E-3,1.451379955E-1
1.843516932E0,-6.657706108E-4,-2.663082443E-3,1.408770680E-1
1.845975005E0,2.529928461E-3,-9.054481052E-3,1.355509013E-1
1.848462244E0,5.725627299E-3,-9.054481052E-3,1.366161406E-1
1.850949484E0,9.986559860E-3,-1.225017942E-2,1.334204376E-1
1.853436671E0,1.744319126E-2,-1.118494663E-2,1.323551983E-1
1.855923911E0,2.063889056E-2,-5.858781748E-3,1.280942708E-1
1.858411151E0,2.383458801E-2,-5.326165119E-4,1.291595101E-1
1.860898390E0,3.342168778E-2,2.663082443E-3,1.323551983E-1
1.863385578E0,3.874785081E-2,7.989247330E-3,1.302247345E-1
1.865872817E0,4.194355011E-2,1.225017942E-2,1.302247345E-1
1.868360057E0,4.620448127E-2,1.651111245E-2,1.323551983E-1
1.870847296E0,4.407401755E-2,1.544587873E-2,1.323551983E-1
1.873334484E0,4.513924941E-2,2.290250920E-2,1.366161406E-1
1.875791151E0,4.833494872E-2,2.822867595E-2,1.387466043E-1
1.878278390E0,4.300878197E-2,3.462007269E-2,1.398118287E-1
1.880765630E0,3.768261895E-2,4.420717061E-2,1.440727711E-1
1.883252817E0,3.555215150E-2,4.846810177E-2,1.451379955E-1
1.885740057E0,2.703028731E-2,5.166380107E-2,1.451379955E-1
1.888227296E0,2.063889056E-2,5.166380107E-2,1.483336985E-1
1.890714536E0,1.424749196E-2,5.272903293E-2,1.515294015E-1
1.893201724E0,1.211702544E-2,5.059856921E-2,1.504641622E-1
1.895688963E0,2.529928461E-3,4.633763805E-2,1.483336985E-1
1.898176203E0,3.994623839E-4,4.101147130E-2,1.472684592E-1
1.900663442E0,-3.861469682E-3,4.101147130E-2,1.483336985E-1
1.903150630E0,-9.187635034E-3,3.781577200E-2,1.462032348E-1
1.905607140E0,-8.122402243E-3,3.888100386E-2,1.430075318E-1
1.908094380E0,-7.057168987E-3,3.781577200E-2,1.387466043E-1
1.910581619E0,-1.025286783E-2,3.994623944E-2,1.312899739E-1
1.913068807E0,-1.025286783E-2,3.781577200E-2,1.248985752E-1
1.915556046E0,-5.991935730E-3,3.462007269E-2,1.206376404E-1
1.918043286E0,-4.926702939E-3,3.675054014E-2,1.131810099E-1
1.920530526E0,-4.926702939E-3,3.568530455E-2,1.057243794E-1
1.923017713E0,3.994623839E-4,3.781577200E-2,1.035939083E-1
1.925504953E0,3.994623839E-4,3.675054014E-2,9.187635034E-2
1.927992192E0,1.464695437E-3,3.994623944E-2,8.228924870E-2
1.930479432E0,3.595161485E-3,3.994623944E-2,7.909355313E-2
1.932966619E0,4.660394508E-3,3.994623944E-2,7.483261824E-2
1.935424692E0,6.790860556E-3,3.568530455E-2,7.376738638E-2
1.937911932E0,8.921326138E-3,3.248960897E-2,7.163692266E-2
1.940399171E0,5.725627299E-3,2.929390781E-2,6.631075591E-2
1.942886359E0,6.790860556E-3,2.609820850E-2,6.631075591E-2
1.945373599E0,8.921326138E-3,1.970681176E-2,7.163692266E-2
1.947860838E0,8.921326138E-3,1.118494663E-2,7.270215452E-2
1.950348078E0,8.921326138E-3,9.054481052E-3,7.270215452E-2
1.952835265E0,7.856093347E-3,9.054481052E-3,7.802832127E-2
1.955322505E0,8.921326138E-3,6.924014539E-3,8.335448056E-2
1.957809744E0,2.529928461E-3,6.924014539E-3,8.548495173E-2
1.960296984E0,2.529928461E-3,7.989247330E-3,8.974587917E-2
1.962784171E0,3.994623839E-4,1.118494663E-2,9.081111848E-2
1.965241255E0,-1.731003635E-3,1.651111245E-2,9.720251709E-2
1.967728494E0,-8.122402243E-3,1.757634431E-2,1.003982127E-1
1.970215734E0,-1.238333434E-2,1.864157803E-2,1.046591476E-1
1.972702921E0,-1.238333434E-2,1.970681176E-2,1.035939083E-1
1.975190161E0,-1.131810062E-2,2.290250920E-2,1.057243794E-1
1.977677401E0,-1.664426550E-2,2.290250920E-2,1.014634445E-1
1.980164640E0,-2.516612969E-2,2.503297664E-2,9.826774895E-2
1.982651828E0,-2.729659714E-2,2.396774292E-2,9.933298081E-2
1.985139067E0,-3.049229458E-2,2.290250920E-2,9.826774895E-2
1.987626307E0,-3.368799388E-2,2.822867595E-2,9.826774895E-2
1.990113546E0,-4.220985994E-2,2.503297664E-2,9.613727778E-2
1.992600734E0,-4.540555924E-2,2.609820850E-2,9.400681406E-2
1.995056359E0,-5.179695413E-2,2.503297664E-2,9.294158220E-2
1.997543599E0,-5.499265343E-2,2.290250920E-2,9.507204592E-2
2.000030838E0,-5.818835273E-2,1.757634431E-2,9.613727778E-2
2.002518026E0,-6.457975507E-2,4.793548491E-3,1.003982127E-1
2.005005265E0,-6.990591437E-2,-4.793548491E-3,9.507204592E-2
2.007492505E0,-7.097115368E-2,-6.924014539E-3,9.507204592E-2
2.009979744E0,-7.310161740E-2,-1.544587873E-2,1.014634445E-1
2.012466932E0,-6.990591437E-2,-1.757634431E-2,1.046591476E-1
2.014954171E0,-6.884068251E-2,-1.438064594E-2,1.067896113E-1
2.017441411E0,-6.564498693E-2,-1.438064594E-2,1.153114736E-1
2.019928651E0,-6.457975507E-2,-9.054481052E-3,1.163767055E-1
2.022415838E0,-6.244928762E-2,-9.054481052E-3,1.217028722E-1
2.024898026E0,-6.138405204E-2,-2.663082443E-3,1.238333359E-1
2.027385265E0,-5.605788901E-2,7.989247330E-3,1.312899739E-1
2.029872505E0,-5.392742157E-2,1.225017942E-2,1.355509013E-1
2.032359692E0,-5.286218971E-2,1.970681176E-2,1.398118287E-1
2.034846932E0,-5.392742157E-2,2.822867595E-2,1.408770680E-1
2.037334171E0,-4.966649041E-2,3.675054014E-2,1.376813650E-1
2.039821411E0,-5.605788901E-2,4.740286991E-2,1.398118287E-1
2.042308599E0,-6.138405204E-2,5.485950038E-2,1.440727711E-1
2.044795838E0,-6.351451576E-2,5.912043154E-2,1.451379955E-1
2.047283078E0,-6.884068251E-2,5.805519968E-2,1.451379955E-1
2.049770317E0,-7.523208112E-2,5.912043154E-2,1.430075318E-1
2.052257505E0,-8.268871158E-2,5.592473224E-2,1.430075318E-1
2.054688599E0,-8.588441461E-2,5.698996782E-2,1.408770680E-1
2.057175838E0,-9.227581322E-2,5.166380107E-2,1.419423074E-1
2.059663078E0,-1.018629074E-1,4.740286991E-2,1.344856620E-1
2.062150265E0,-1.082543060E-1,4.633763805E-2,1.302247345E-1
2.064637505E0,-1.135804728E-1,4.314193875E-2,1.280942708E-1
2.067124744E0,-1.189066395E-1,4.527240247E-2,1.248985752E-1
2.069611984E0,-1.210371032E-1,4.740286991E-2,1.174419373E-1
2.072099171E0,-1.231675670E-1,4.633763805E-2,1.089200750E-1
2.074586411E0,-1.231675670E-1,4.953333735E-2,1.014634445E-1
2.077073651E0,-1.242327988E-1,5.272903293E-2,9.400681406E-2
2.079560890E0,-1.242327988E-1,5.912043154E-2,9.081111848E-2
2.082048078E0,-1.231675670E-1,6.018566713E-2,8.228924870E-2
2.084510317E0,-1.189066395E-1,6.338136643E-2,7.483261824E-2
2.086997036E0,-1.125152409E-1,6.657706201E-2,6.418029219E-2
2.089483755E0,-1.061238423E-1,6.977276504E-2,5.885412544E-2
2.091970474E0,-1.007976755E-1,7.083799690E-2,4.926702753E-2
2.094457192E0,-9.653674066E-2,6.657706201E-2,3.967992961E-2
2.096943911E0,-8.801487833E-2,6.551183015E-2,3.861469775E-2
2.099430630E0,-8.268871158E-2,6.870753318E-2,3.435376659E-2
2.101917401E0,-7.416684926E-2,6.870753318E-2,3.435376659E-2
2.104404119E0,-7.203638554E-2,6.657706201E-2,2.902759984E-2
2.106890838E0,-6.671021879E-2,6.764229387E-2,3.009283356E-2
2.109377557E0,-6.031882018E-2,6.870753318E-2,3.222329915E-2
2.111864276E0,-5.392742157E-2,7.509893179E-2,3.435376659E-2
2.114327140E0,-4.966649041E-2,7.616416365E-2,3.435376659E-2
2.116813859E0,-4.647079110E-2,7.509893179E-2,3.648423031E-2
2.119300578E0,-4.007939249E-2,8.255556226E-2,4.181039706E-2
2.121787296E0,-3.688369319E-2,8.468602598E-2,4.500609636E-2
2.124274015E0,-3.475322574E-2,9.001219273E-2,4.394086078E-2
2.126760734E0,-2.729659714E-2,9.320788831E-2,5.033225939E-2
2.129247453E0,-2.303566411E-2,9.427312016E-2,5.565842614E-2
2.131734224E0,-1.877473295E-2,9.427312016E-2,5.885412544E-2
2.134220942E0,-1.770949923E-2,9.107742459E-2,6.311506033E-2
2.136707661E0,-1.131810062E-2,8.788172156E-2,6.418029219E-2
2.139194380E0,-1.131810062E-2,8.149032295E-2,7.057169080E-2
2.141681099E0,-9.187635034E-3,7.403369248E-2,7.802832127E-2
2.144139015E0,-8.122402243E-3,6.551183015E-2,8.228924870E-2
2.146625734E0,-3.861469682E-3,5.592473224E-2,8.441971987E-2
2.149112453E0,-6.657706108E-4,4.740286991E-2,9.187635034E-2
2.151599171E0,5.725627299E-3,3.781577200E-2,1.003982127E-1
2.154085890E0,8.921326138E-3,2.609820850E-2,1.057243794E-1
2.156572609E0,1.424749196E-2,1.970681176E-2,1.142462417E-1
2.159059328E0,1.744319126E-2,1.544587873E-2,1.206376404E-1
2.161546099E0,2.703028731E-2,1.864157803E-2,1.270290315E-1
2.164032817E0,3.555215150E-2,2.290250920E-2,1.270290315E-1
2.166519536E0,4.194355011E-2,2.716344222E-2,1.302247345E-1
2.169006255E0,5.366111174E-2,3.248960897E-2,1.355509013E-1
2.171492974E0,6.324820966E-2,3.462007269E-2,1.376813650E-1
2.173954171E0,7.390054315E-2,3.781577200E-2,1.366161406E-1
2.176440890E0,8.668334037E-2,4.314193875E-2,1.366161406E-1
2.178927609E0,9.627043456E-2,4.420717061E-2,1.408770680E-1
2.181414328E0,1.026618332E-1,4.846810177E-2,1.430075318E-1
2.183901046E0,1.111836955E-1,5.912043154E-2,1.419423074E-1
2.186387765E0,1.165098622E-1,6.231613085E-2,1.398118287E-1
2.188874484E0,1.207707971E-1,7.296846062E-2,1.387466043E-1
2.191361255E0,1.239664927E-1,8.468602598E-2,1.376813650E-1
2.193847974E0,1.229012609E-1,9.320788831E-2,1.323551983E-1
2.196334692E0,1.197055578E-1,1.017297506E-1,1.323551983E-1
2.198821411E0,1.186403260E-1,1.006645188E-1,1.248985752E-1
2.201308130E0,1.143793985E-1,1.038602218E-1,1.195724085E-1
2.203772140E0,1.133141592E-1,1.017297506E-1,1.195724085E-1
2.206258859E0,1.090532318E-1,9.746882319E-2,1.142462417E-1
2.208745578E0,1.047922969E-1,9.320788831E-2,1.078548431E-1
2.211232296E0,1.005313694E-1,8.255556226E-2,1.046591476E-1
2.213719015E0,9.733566642E-2,7.935985923E-2,1.003982127E-1
2.216205734E0,9.840089828E-2,7.296846062E-2,9.720251709E-2
2.218692453E0,9.520520270E-2,6.657706201E-2,9.081111848E-2
2.221179224E0,9.307473898E-2,6.338136643E-2,8.761541545E-2
2.223665942E0,8.987903595E-2,6.338136643E-2,8.441971987E-2
2.226152661E0,9.094426781E-2,6.125089899E-2,7.802832127E-2
2.228639380E0,9.094426781E-2,6.125089899E-2,7.376738638E-2
2.231126099E0,8.987903595E-2,6.125089899E-2,6.844121963E-2
2.233589484E0,9.200949967E-2,6.231613085E-2,6.204982474E-2
2.236076203E0,9.946613014E-2,5.485950038E-2,5.459319428E-2
2.238562921E0,1.069227681E-1,5.485950038E-2,5.033225939E-2
2.241049640E0,1.069227681E-1,4.953333735E-2,4.713656008E-2
2.243536359E0,1.122489274E-1,3.781577200E-2,4.394086078E-2
2.246023078E0,1.218360290E-1,2.929390781E-2,4.287562892E-2
2.248509796E0,1.292926520E-1,2.077204362E-2,4.607132822E-2
2.250996567E0,1.399449855E-1,1.011971384E-2,4.820179567E-2
2.253483286E0,1.452711523E-1,4.793548491E-3,5.352795869E-2
2.255970005E0,1.527277827E-1,4.793548491E-3,5.885412544E-2
2.258456724E0,1.591191888E-1,1.597849536E-3,5.885412544E-2
2.260943442E0,1.665758193E-1,-2.663082443E-3,6.418029219E-2
2.263406099E0,1.740324497E-1,-9.054481052E-3,7.483261824E-2
2.265892817E0,1.750976741E-1,-1.331541315E-2,8.655018359E-2
2.268379536E0,1.761629134E-1,-1.850842312E-2,9.613727778E-2
2.270866255E0,1.772281379E-1,-2.489982173E-2,1.035939083E-1
2.273352974E0,1.750976741E-1,-2.809552103E-2,1.227681041E-1
2.275839692E0,1.740324497E-1,-3.129122034E-2,1.366161406E-1
2.278326411E0,1.708367467E-1,-3.022598661E-2,1.440727711E-1
2.280813182E0,1.633801162E-1,-2.703028731E-2,1.504641622E-1
2.283299901E0,1.601844132E-1,-1.651111245E-2,1.600512564E-1
2.285786619E0,1.505973190E-1,-4.793548491E-3,1.696383655E-1
2.288273338E0,1.367492825E-1,3.728315700E-3,1.707035899E-1
2.290760057E0,1.239664927E-1,1.331541315E-2,1.685731262E-1
2.293230526E0,1.111836955E-1,2.290250920E-2,1.675078869E-1
2.295717244E0,9.413997084E-2,3.462007269E-2,1.696383655E-1
2.298203963E0,7.816147059E-2,3.888100386E-2,1.621817350E-1
2.300690682E0,5.792204663E-2,4.527240247E-2,1.536598653E-1
2.303177401E0,3.555215150E-2,4.740286991E-2,1.440727711E-1
2.305664119E0,8.921326138E-3,4.207670316E-2,1.355509013E-1
2.308150838E0,-1.451379992E-2,3.781577200E-2,1.270290315E-1
2.310637609E0,-3.901416063E-2,2.822867595E-2,1.153114736E-1
2.313124328E0,-6.244928762E-2,1.651111245E-2,1.057243794E-1
2.315611046E0,-8.268871158E-2,6.924014539E-3,9.507204592E-2
2.318097765E0,-1.029281393E-1,-5.326165119E-4,8.335448056E-2
2.320584484E0,-1.242327988E-1,-6.924014539E-3,7.057169080E-2
2.323059953E0,-1.444722265E-1,-9.054481052E-3,5.672365800E-2
2.325546671E0,-1.615159512E-1,-6.924014539E-3,4.287562892E-2
2.328033390E0,-1.796249151E-1,-7.989247330E-3,3.328853101E-2
2.330520109E0,-1.924077123E-1,-5.858781748E-3,2.689713426E-2
2.333006828E0,-1.977338791E-1,-3.728315700E-3,1.517957076E-2
2.335493546E0,-2.094514370E-1,-2.663082443E-3,3.462007269E-3
2.337980265E0,-2.158428431E-1,-3.728315700E-3,-2.929390874E-3
2.340467036E0,-2.222342342E-1,-6.924014539E-3,-5.059856921E-3
2.342953755E0,-2.232994735E-1,-1.011971384E-2,-1.145125460E-2
2.345440474E0,-2.211690098E-1,-1.011971384E-2,-1.145125460E-2
2.347927192E0,-2.243647128E-1,-7.989247330E-3,-1.251648832E-2
2.350413911E0,-2.243647128E-1,-5.858781748E-3,-1.464695390E-2
2.352853442E0,-2.222342342E-1,-5.326165119E-4,-1.251648832E-2
2.355340161E0,-2.201037705E-1,6.924014539E-3,-3.994623665E-3
2.357826880E0,-2.169080675E-1,1.438064594E-2,2.396774245E-3
2.360313599E0,-2.179733068E-1,2.290250920E-2,7.722939365E-3
2.362800317E0,-2.169080675E-1,2.290250920E-2,1.091863867E-2
2.365287036E0,-2.094514370E-1,2.503297664E-2,1.837527007E-2
2.367773755E0,-2.073209733E-1,2.716344222E-2,2.902759984E-2
2.370260526E0,-2.062557489E-1,2.822867595E-2,4.074516147E-2
2.372747244E0,-1.987991184E-1,3.248960897E-2,5.459319428E-2
2.375233963E0,-1.934729517E-1,3.355484083E-2,6.204982474E-2
2.377720682E0,-1.913424879E-1,3.888100386E-2,7.270215452E-2
2.380207401E0,-1.870815456E-1,4.207670316E-2,8.228924870E-2
2.382680421E0,-1.849510819E-1,4.420717061E-2,9.507204592E-2
2.385167140E0,-1.838858575E-1,5.379426852E-2,1.025286764E-1
2.387653859E0,-1.785596907E-1,5.698996782E-2,1.110505462E-1
2.390140578E0,-1.753639877E-1,6.231613085E-2,1.163767055E-1
2.392627296E0,-1.700378209E-1,6.977276504E-2,1.280942708E-1
2.395114015E0,-1.636464298E-1,7.509893179E-2,1.344856620E-1
2.397600734E0,-1.625811905E-1,8.149032295E-2,1.430075318E-1
2.400087505E0,-1.572550237E-1,9.107742459E-2,1.462032348E-1
2.402574224E0,-1.561897993E-1,1.006645188E-1,1.504641622E-1
2.405060942E0,-1.529940963E-1,1.081211492E-1,1.515294015E-1
2.407547661E0,-1.487331539E-1,1.177082509E-1,1.515294015E-1
2.410034380E0,-1.412765235E-1,1.219691783E-1,1.525946259E-1
2.412484640E0,-1.348851323E-1,1.262301207E-1,1.493989378E-1
2.414971359E0,-1.263632625E-1,1.326215118E-1,1.483336985E-1
2.417458078E0,-1.210371032E-1,1.315562725E-1,1.493989378E-1
2.419944796E0,-1.167761683E-1,1.272953451E-1,1.493989378E-1
2.422431515E0,-1.071890742E-1,1.230344176E-1,1.483336985E-1
2.424918234E0,-9.653674066E-2,1.219691783E-1,1.493989378E-1
2.427404953E0,-9.121058136E-2,1.209039465E-1,1.504641622E-1
2.429891724E0,-8.588441461E-2,1.134473160E-1,1.472684592E-1
2.432378442E0,-8.162347972E-2,1.070559174E-1,1.536598653E-1
2.434865161E0,-7.203638554E-2,1.059906855E-1,1.579207927E-1
2.437351880E0,-6.671021879E-2,9.746882319E-2,1.589860320E-1
2.439838599E0,-6.031882018E-2,8.894696087E-2,1.611164957E-1
2.442300682E0,-5.073172227E-2,8.362079412E-2,1.664426625E-1
2.444787401E0,-4.114462435E-2,8.042509109E-2,1.707035899E-1
2.447274119E0,-3.794892505E-2,7.403369248E-2,1.760297567E-1
2.449760838E0,-3.262276202E-2,6.657706201E-2,1.781602204E-1
2.452247557E0,-2.197043039E-2,6.444659829E-2,1.856168509E-1
2.454734276E0,-1.770949923E-2,5.805519968E-2,1.888125539E-1
2.457220994E0,-9.187635034E-3,5.272903293E-2,1.930734813E-1
2.459707765E0,-2.796236658E-3,4.740286991E-2,1.973344237E-1
2.462194484E0,3.595161485E-3,4.314193875E-2,1.973344237E-1
2.464681203E0,9.986559860E-3,3.994623944E-2,1.962691844E-1
2.467167921E0,1.637795754E-2,3.781577200E-2,1.941387206E-1
2.469654640E0,2.383458801E-2,3.568530455E-2,1.909430176E-1
2.472101932E0,3.235645220E-2,3.675054014E-2,1.845516264E-1
2.474588651E0,3.768261895E-2,3.888100386E-2,1.728340536E-1
2.477075369E0,4.407401755E-2,4.633763805E-2,1.579207927E-1
2.479562088E0,4.940018058E-2,4.953333735E-2,1.440727711E-1
2.482048807E0,5.792204663E-2,5.485950038E-2,1.248985752E-1
2.484535526E0,6.218297780E-2,6.231613085E-2,1.014634445E-1
2.487022244E0,6.750914454E-2,6.657706201E-2,8.335448056E-2
2.489509015E0,7.177007198E-2,7.509893179E-2,5.778888986E-2
2.491995734E0,7.390054315E-2,8.042509109E-2,3.009283356E-2
2.494482453E0,7.816147059E-2,8.362079412E-2,3.462007269E-3
2.496969171E0,8.135717362E-2,8.468602598E-2,-1.890788600E-2
2.499455890E0,7.922670245E-2,7.509893179E-2,-4.234301299E-2
2.501935526E0,8.242240548E-2,6.231613085E-2,-6.151720881E-2
2.504422244E0,8.242240548E-2,4.740286991E-2,-7.643046975E-2
2.506908963E0,8.242240548E-2,2.077204362E-2,-9.240896255E-2
2.509395682E0,8.348763734E-2,5.326165119E-4,-1.019960642E-1
2.511882401E0,8.029194176E-2,-1.651111245E-2,-1.105179265E-1
2.514369119E0,8.242240548E-2,-3.448691964E-2,-1.137136221E-1
2.516855838E0,8.242240548E-2,-5.259587988E-2,-1.115831584E-1
2.519342609E0,8.348763734E-2,-6.324820966E-2,-1.126483902E-1
2.521829328E0,8.242240548E-2,-7.177007198E-2,-1.041265279E-1
2.524316046E0,8.348763734E-2,-7.709623873E-2,-9.773512930E-2
2.526802765E0,8.881380409E-2,-7.816147059E-2,-8.495233208E-2
2.529289484E0,9.200949967E-2,-7.177007198E-2,-7.643046975E-2
2.531750838E0,9.307473898E-2,-6.750914454E-2,-6.471290439E-2
2.534237557E0,1.015966013E-1,-5.898727849E-2,-5.299534276E-2
2.536724276E0,9.946613014E-2,-5.579157919E-2,-4.447348043E-2
2.539210994E0,9.840089828E-2,-4.940018058E-2,-3.914731368E-2
2.541697713E0,1.015966013E-1,-4.620448127E-2,-2.956021577E-2
2.544184432E0,1.069227681E-1,-4.407401755E-2,-1.677742042E-2
2.546671151E0,1.015966013E-1,-3.342168778E-2,-8.255556226E-3
2.549157921E0,1.026618332E-1,-3.555215150E-2,-3.994623665E-3
2.551644640E0,1.058575287E-1,-3.981308267E-2,1.331541222E-3
2.554131359E0,1.015966013E-1,-4.620448127E-2,7.722939365E-3
2.556618078E0,9.413997084E-2,-5.472634733E-2,1.517957076E-2
2.559104796E0,9.200949967E-2,-6.005251035E-2,1.944050193E-2
2.561567088E0,9.307473898E-2,-6.750914454E-2,2.476666868E-2
2.564053807E0,8.668334037E-2,-7.390054315E-2,3.009283356E-2
2.566540526E0,8.135717362E-2,-8.135717362E-2,3.435376659E-2
2.569027244E0,8.135717362E-2,-8.455286920E-2,4.074516147E-2
2.571513963E0,7.709623873E-2,-9.307473898E-2,4.500609636E-2
2.574000682E0,7.390054315E-2,-9.733566642E-2,4.926702753E-2
2.576487401E0,7.070484012E-2,-1.079879999E-1,5.246272683E-2
2.578974171E0,7.070484012E-2,-1.133141592E-1,5.885412544E-2
2.581460890E0,6.644391268E-2,-1.229012609E-1,6.311506033E-2
2.583947609E0,6.537867337E-2,-1.271621883E-1,6.631075591E-2
2.586434328E0,6.218297780E-2,-1.250317246E-1,7.163692266E-2
2.588921046E0,5.792204663E-2,-1.133141592E-1,7.057169080E-2
2.591384640E0,5.366111174E-2,-1.037270650E-1,6.418029219E-2
2.593870942E0,5.472634733E-2,-8.135717362E-2,6.418029219E-2
2.596357244E0,4.726971686E-2,-5.472634733E-2,5.139749497E-2
2.598843546E0,3.768261895E-2,-2.809552103E-2,4.287562892E-2
2.601329901E0,3.129122034E-2,1.597849536E-3,2.796236612E-2
2.603816203E0,2.489982173E-2,3.355484083E-2,7.722939365E-3
2.606302505E0,1.850842312E-2,6.764229387E-2,-5.059856921E-3
2.608788807E0,9.986559860E-3,1.017297506E-1,-2.956021577E-2
2.611275161E0,3.595161485E-3,1.326215118E-1,-4.873441160E-2
2.613761463E0,-5.991935730E-3,1.656437367E-1,-7.323476672E-2
2.616247765E0,-1.131810062E-2,1.965354979E-1,-9.986559302E-2
2.618734067E0,-1.983996481E-2,2.338186502E-1,-1.233007237E-1
2.621199849E0,-2.090519853E-2,2.455362082E-1,-1.520620137E-1
2.623686151E0,-1.238333434E-2,2.391448170E-1,-1.765623689E-1
2.626172453E0,-9.187635034E-3,2.370143533E-1,-2.063889056E-1
2.628658755E0,5.725627299E-3,2.391448170E-1,-2.362154275E-1
2.631145109E0,1.105179265E-2,2.370143533E-1,-2.564548552E-1
2.633631411E0,1.637795754E-2,2.380795777E-1,-2.809551954E-1
2.636117713E0,2.809552103E-2,2.370143533E-1,-3.022598624E-1
2.638604015E0,3.448691964E-2,2.316881865E-1,-3.214340508E-1
2.641090369E0,3.874785081E-2,2.274272442E-1,-3.395430148E-1
2.643576671E0,4.407401755E-2,2.306229472E-1,-3.576519787E-1
2.646062974E0,4.940018058E-2,2.284924835E-1,-3.725652397E-1
2.648549276E0,5.259587988E-2,2.221010923E-1,-3.862801194E-1
2.651019484E0,6.431344151E-2,2.242315561E-1,-3.979976773E-1
2.653505786E0,7.070484012E-2,2.252967805E-1,-4.086500108E-1
2.655992088E0,7.496577501E-2,2.242315561E-1,-4.203675687E-1
2.658478390E0,7.709623873E-2,2.199706137E-1,-4.278241992E-1
2.660964744E0,8.348763734E-2,2.178401500E-1,-4.320851564E-1
2.663451046E0,8.774857223E-2,2.167749256E-1,-4.384765327E-1
2.665937349E0,9.520520270E-2,2.135792226E-1,-4.427374899E-1
2.668423651E0,9.627043456E-2,2.146444470E-1,-4.491288662E-1
2.670910005E0,9.627043456E-2,2.093182951E-1,-4.512593448E-1
2.673396307E0,9.946613014E-2,2.061225921E-1,-4.533897936E-1
2.675882609E0,1.047922969E-1,2.103835195E-1,-4.523245692E-1
2.678368911E0,1.069227681E-1,2.029268891E-1,-4.565854967E-1
2.680832192E0,1.090532318E-1,1.965354979E-1,-4.565854967E-1
2.683318494E0,1.079879999E-1,1.986659616E-1,-4.544550478E-1
2.685804796E0,1.037270650E-1,1.944050342E-1,-4.544550478E-1
2.688291099E0,1.090532318E-1,1.901440918E-1,-4.512593448E-1
2.690777453E0,1.079879999E-1,1.869483888E-1,-4.501941204E-1
2.693263755E0,1.026618332E-1,1.880136281E-1,-4.459331632E-1
2.695750057E0,1.047922969E-1,1.848179251E-1,-4.384765327E-1
2.698236359E0,1.026618332E-1,1.816222370E-1,-4.352808297E-1
2.700722713E0,9.840089828E-2,1.805569977E-1,-4.342156053E-1
2.703209015E0,9.733566642E-2,1.752308309E-1,-4.267589748E-1
2.705695317E0,9.627043456E-2,1.752308309E-1,-4.224980474E-1
2.708181619E0,9.094426781E-2,1.709699035E-1,-4.171718955E-1
2.710649484E0,9.094426781E-2,1.667089611E-1,-4.139761925E-1
2.713135786E0,8.242240548E-2,1.645784974E-1,-4.118457139E-1
2.715622088E0,7.922670245E-2,1.635132730E-1,-4.075847864E-1
2.718108390E0,7.283531129E-2,1.571218669E-1,-4.011933804E-1
2.720594744E0,6.857437640E-2,1.539261788E-1,-3.979976773E-1
2.723081046E0,6.644391268E-2,1.549914032E-1,-3.948020041E-1
2.725567349E0,6.218297780E-2,1.539261788E-1,-3.873453438E-1
2.728053651E0,5.259587988E-2,1.475347728E-1,-3.873453438E-1
2.730540005E0,4.940018058E-2,1.443390697E-1,-3.830844164E-1
2.733026307E0,4.407401755E-2,1.400781423E-1,-3.789566457E-1
2.735512609E0,4.087831825E-2,1.400781423E-1,-3.768261969E-1
2.737998911E0,3.874785081E-2,1.358172148E-1,-3.725652397E-1
2.740463911E0,3.768261895E-2,1.326215118E-1,-3.661738634E-1
2.742950213E0,3.022598661E-2,1.294258088E-1,-3.597824574E-1
2.745436515E0,2.596505545E-2,1.251648813E-1,-3.501953483E-1
2.747922817E0,2.170412242E-2,1.251648813E-1,-3.438039720E-1
2.750409171E0,1.744319126E-2,1.209039465E-1,-3.374125659E-1
2.752895474E0,1.531272475E-2,1.177082509E-1,-3.288906813E-1
2.755381776E0,1.211702544E-2,1.145125479E-1,-3.203688264E-1
2.757868078E0,5.725627299E-3,1.113168523E-1,-3.075860441E-1
2.760354432E0,4.660394508E-3,1.081211492E-1,-2.969337106E-1
2.762840734E0,4.660394508E-3,1.059906855E-1,-2.894770801E-1
2.765327036E0,3.994623839E-4,1.027949899E-1,-2.788247466E-1
2.767813338E0,-4.926702939E-3,9.853405505E-2,-2.639114857E-1
2.770279796E0,-8.122402243E-3,9.427312016E-2,-2.521939278E-1
2.772766099E0,-4.926702939E-3,9.214265645E-2,-2.319544852E-1
2.775252401E0,-7.057168987E-3,9.001219273E-2,-2.191716880E-1
2.777738703E0,-8.122402243E-3,8.681648970E-2,-2.053236663E-1
2.780225057E0,-1.025286783E-2,7.935985923E-2,-1.872147024E-1
2.782711359E0,-1.770949923E-2,7.509893179E-2,-1.733666807E-1
2.785197661E0,-1.770949923E-2,7.296846062E-2,-1.552577168E-1
2.787683963E0,-1.451379992E-2,7.403369248E-2,-1.339530498E-1
2.790170317E0,-1.557903271E-2,6.870753318E-2,-1.201050207E-1
2.792656619E0,-1.983996481E-2,6.551183015E-2,-1.051917598E-1
2.795142921E0,-2.090519853E-2,6.551183015E-2,-9.027849883E-2
2.797629224E0,-2.197043039E-2,5.698996782E-2,-7.430000603E-2
2.800112609E0,-2.516612969E-2,5.485950038E-2,-5.725627393E-2
2.802598911E0,-2.516612969E-2,5.166380107E-2,-3.914731368E-2
2.805085213E0,-2.623136342E-2,4.846810177E-2,-2.849498391E-2
2.807571515E0,-2.516612969E-2,4.314193875E-2,-1.677742042E-2
2.810057869E0,-2.942706272E-2,3.994623944E-2,-8.255556226E-3
2.812544171E0,-3.049229458E-2,3.781577200E-2,8.788172156E-3
2.815030474E0,-3.155753016E-2,3.781577200E-2,2.370143496E-2
2.817516776E0,-3.262276202E-2,3.142437339E-2,3.115806542E-2
2.820003130E0,-2.623136342E-2,2.503297664E-2,3.754946589E-2
2.822489432E0,-3.049229458E-2,2.503297664E-2,4.500609636E-2
2.824975734E0,-3.475322574E-2,2.183727734E-2,5.139749497E-2
2.827462036E0,-3.368799388E-2,1.970681176E-2,5.565842614E-2
2.829912765E0,-3.155753016E-2,1.651111245E-2,5.565842614E-2
2.832399067E0,-3.049229458E-2,1.331541315E-2,6.204982474E-2
2.834885369E0,-3.475322574E-2,7.989247330E-3,6.311506033E-2
2.837371671E0,-3.155753016E-2,6.924014539E-3,6.311506033E-2
2.839858026E0,-2.942706272E-2,7.989247330E-3,6.418029219E-2
2.842344328E0,-3.049229458E-2,-5.326165119E-4,5.672365800E-2
2.844830630E0,-2.836182900E-2,-3.728315700E-3,5.033225939E-2
2.847316932E0,-3.049229458E-2,-5.326165119E-4,4.500609636E-2
2.849803286E0,-2.942706272E-2,-4.793548491E-3,3.754946589E-2
2.852289588E0,-2.729659714E-2,-1.118494663E-2,2.370143496E-2
2.854775890E0,-2.729659714E-2,-1.438064594E-2,9.853405878E-3
2.857262192E0,-2.516612969E-2,-1.651111245E-2,-2.929390874E-3
2.859730161E0,-2.303566411E-2,-1.850842312E-2,-1.464695390E-2
2.862216463E0,-2.303566411E-2,-2.489982173E-2,-3.275591508E-2
2.864702765E0,-1.983996481E-2,-2.383458801E-2,-4.873441160E-2
2.867189067E0,-1.770949923E-2,-2.809552103E-2,-6.790860742E-2
2.869675421E0,-1.238333434E-2,-3.235645220E-2,-9.453943372E-2
2.872161724E0,-1.131810062E-2,-3.342168778E-2,-1.083874628E-1
2.874648026E0,-4.926702939E-3,-3.235645220E-2,-1.307573467E-1
2.877134380E0,-6.657706108E-4,-3.661738336E-2,-1.541924775E-1
2.879620682E0,3.595161485E-3,-4.300878197E-2,-1.776276082E-1
2.882106984E0,5.725627299E-3,-4.513924941E-2,-2.010627389E-1
2.884593286E0,1.318225823E-2,-4.300878197E-2,-2.266283184E-1
2.887079588E0,1.957365684E-2,-4.620448127E-2,-2.532591522E-1
2.889546828E0,2.276935615E-2,-5.046541616E-2,-2.734985650E-1
2.892033130E0,2.916075476E-2,-5.366111174E-2,-2.969337106E-1
2.894519432E0,3.235645220E-2,-5.792204663E-2,-3.224993050E-1
2.897005734E0,3.981308267E-2,-5.579157919E-2,-3.469996452E-1
2.899492088E0,4.407401755E-2,-5.685681105E-2,-3.672390878E-1
2.901978390E0,5.153064802E-2,-6.431344151E-2,-3.894758224E-1
2.904464692E0,6.218297780E-2,-6.431344151E-2,-4.139761925E-1
2.906950994E0,6.537867337E-2,-6.324820966E-2,-4.352808297E-1
2.909437349E0,6.857437640E-2,-6.963960826E-2,-4.512593448E-1
2.911923651E0,7.709623873E-2,-7.070484012E-2,-4.672378302E-1
2.914409953E0,8.561810106E-2,-7.390054315E-2,-4.885424972E-1
2.916896307E0,9.094426781E-2,-7.496577501E-2,-5.066514611E-1
2.919361515E0,9.413997084E-2,-8.029194176E-2,-5.215647221E-1
2.921847765E0,9.733566642E-2,-8.455286920E-2,-5.407389402E-1
2.924334119E0,1.058575287E-1,-8.561810106E-2,-5.588479042E-1
2.926820421E0,1.122489274E-1,-9.094426781E-2,-5.705654621E-1
2.929306776E0,1.154446304E-1,-9.200949967E-2,-5.812177658E-1
2.931793078E0,1.197055578E-1,-9.413997084E-2,-5.993267298E-1
2.934279380E0,1.239664927E-1,-9.733566642E-2,-6.110442877E-1
2.936765682E0,1.271621883E-1,-1.037270650E-1,-6.163704395E-1
2.939252036E0,1.324883550E-1,-1.037270650E-1,-6.280879974E-1
2.941738338E0,1.346188188E-1,-1.037270650E-1,-6.376751065E-1
2.944224640E0,1.399449855E-1,-1.079879999E-1,-6.461969614E-1
2.946710942E0,1.431406885E-1,-1.101184636E-1,-6.547188759E-1
2.949178442E0,1.452711523E-1,-1.143793985E-1,-6.579145193E-1
2.951664744E0,1.474016160E-1,-1.197055578E-1,-6.653711796E-1
2.954151046E0,1.484668553E-1,-1.218360290E-1,-6.738930345E-1
2.956637349E0,1.516625583E-1,-1.207707971E-1,-6.749582887E-1
2.959123703E0,1.548582464E-1,-1.229012609E-1,-6.760234833E-1
2.961610005E0,1.527277827E-1,-1.282274276E-1,-6.845453978E-1
2.964096307E0,1.580539495E-1,-1.282274276E-1,-6.845453978E-1
2.966582609E0,1.548582464E-1,-1.292926520E-1,-6.834801435E-1
2.969068963E0,1.527277827E-1,-1.346188188E-1,-6.866758466E-1
2.971555265E0,1.537930220E-1,-1.399449855E-1,-6.834801435E-1
2.974041567E0,1.495320797E-1,-1.420754492E-1,-6.866758466E-1
2.976527869E0,1.474016160E-1,-1.431406885E-1,-6.877411008E-1
2.978994901E0,1.431406885E-1,-1.474016160E-1,-6.845453978E-1
2.981481203E0,1.399449855E-1,-1.484668553E-1,-6.856105924E-1
2.983967505E0,1.367492825E-1,-1.484668553E-1,-6.845453978E-1
2.986453807E0,1.356840581E-1,-1.537930220E-1,-6.834801435E-1
2.988940161E0,1.292926520E-1,-1.559234858E-1,-6.802844405E-1
2.991426463E0,1.250317246E-1,-1.569887102E-1,-6.792191863E-1
2.993912765E0,1.229012609E-1,-1.623148769E-1,-6.781539917E-1
2.996399067E0,1.186403260E-1,-1.655105799E-1,-6.749582887E-1
2.998885421E0,1.122489274E-1,-1.665758193E-1,-6.706973314E-1
3.001371724E0,1.079879999E-1,-1.687062830E-1,-6.706973314E-1
3.003858026E0,1.037270650E-1,-1.719019860E-1,-6.685668826E-1
3.006344328E0,9.946613014E-2,-1.740324497E-1,-6.653711796E-1
3.008811828E0,9.200949967E-2,-1.772281379E-1,-6.621754766E-1
3.011298130E0,8.881380409E-2,-1.782933772E-1,-6.579145193E-1
3.013784432E0,8.668334037E-2,-1.825543046E-1,-6.536536217E-1
3.016270734E0,7.816147059E-2,-1.814890802E-1,-6.483274698E-1
3.018757088E0,7.390054315E-2,-1.836195439E-1,-6.440665126E-1
3.021243390E0,6.750914454E-2,-1.900109351E-1,-6.398055553E-1
3.023729692E0,6.537867337E-2,-1.921414137E-1,-6.312837005E-1
3.026215994E0,6.324820966E-2,-1.953371018E-1,-6.248922944E-1
3.028702349E0,5.898727849E-2,-1.974675655E-1,-6.185009480E-1
3.031188651E0,5.153064802E-2,-1.974675655E-1,-6.131747365E-1
3.033674953E0,5.046541616E-2,-2.006632686E-1,-6.025224328E-1
3.036161307E0,4.726971686E-2,-2.038589716E-1,-5.918700695E-1
3.038626671E0,4.194355011E-2,-2.091851383E-1,-5.833482146E-1
3.041112974E0,4.194355011E-2,-2.059894353E-1,-5.684349537E-1
3.043599276E0,3.768261895E-2,-2.113156021E-1,-5.577826500E-1
3.046085578E0,3.555215150E-2,-2.145113051E-1,-5.428693891E-1
3.048571932E0,3.448691964E-2,-2.155765295E-1,-5.300865769E-1
3.051058234E0,2.916075476E-2,-2.177069932E-1,-5.162385702E-1
3.053544536E0,2.596505545E-2,-2.209026963E-1,-5.002600551E-1
3.056030838E0,2.916075476E-2,-2.240983993E-1,-4.864120185E-1
3.058517192E0,2.809552103E-2,-2.251636237E-1,-4.672378302E-1
3.061003494E0,2.276935615E-2,-2.262288630E-1,-4.523245692E-1
3.063489796E0,2.063889056E-2,-2.283593267E-1,-4.374113083E-1
3.065976099E0,2.063889056E-2,-2.315550297E-1,-4.193023443E-1
3.068446932E0,2.170412242E-2,-2.336854935E-1,-3.979976773E-1
3.070933234E0,1.744319126E-2,-2.400768995E-1,-3.821523488E-1
3.073419536E0,1.531272475E-2,-2.400768995E-1,-3.651086092E-1
3.075905838E0,1.531272475E-2,-2.390116602E-1,-3.480648994E-1
3.078392192E0,1.531272475E-2,-2.411421239E-1,-3.299559355E-1
3.080878494E0,1.318225823E-2,-2.432725877E-1,-3.150426745E-1
3.083364796E0,1.211702544E-2,-2.464682907E-1,-2.958684862E-1
3.085851099E0,1.637795754E-2,-2.496639937E-1,-2.777595222E-1
3.088337453E0,1.211702544E-2,-2.517944574E-1,-2.628462613E-1
3.090823755E0,6.790860556E-3,-2.528596818E-1,-2.468677461E-1
3.093310057E0,1.105179265E-2,-2.571206093E-1,-2.330197245E-1
3.095796359E0,1.211702544E-2,-2.592510879E-1,-2.202369273E-1
3.098258755E0,1.424749196E-2,-2.613815665E-1,-2.042584270E-1
3.100744744E0,9.986559860E-3,-2.645772398E-1,-1.925408691E-1
3.103230734E0,9.986559860E-3,-2.656424940E-1,-1.786928326E-1
3.105716724E0,8.921326138E-3,-2.635120153E-1,-1.701709777E-1
3.108202713E0,1.211702544E-2,-2.635120153E-1,-1.637795717E-1
3.110688703E0,9.986559860E-3,-2.688381970E-1,-1.520620137E-1
3.113174640E0,8.921326138E-3,-2.699034214E-1,-1.488663107E-1
3.115660630E0,5.725627299E-3,-2.730991244E-1,-1.414096802E-1
3.118146619E0,6.790860556E-3,-2.762948275E-1,-1.382139921E-1
3.120632661E0,7.856093347E-3,-2.752295732E-1,-1.350182891E-1
3.123118599E0,9.986559860E-3,-2.752295732E-1,-1.350182891E-1
3.125604588E0,8.921326138E-3,-2.805557549E-1,-1.318225861E-1
3.128077817E0,1.211702544E-2,-2.794905007E-1,-1.307573467E-1
3.130563807E0,1.211702544E-2,-2.794905007E-1,-1.339530498E-1
3.133049796E0,1.424749196E-2,-2.816209793E-1,-1.403444558E-1
3.135535786E0,1.211702544E-2,-2.837514579E-1,-1.424749196E-1
3.138021776E0,1.318225823E-2,-2.858819067E-1,-1.478010863E-1
3.140507765E0,1.318225823E-2,-2.880123854E-1,-1.584534049E-1
3.142993755E0,1.318225823E-2,-2.890776098E-1,-1.659100503E-1
3.145479692E0,1.531272475E-2,-2.890776098E-1,-1.723014414E-1
3.147965682E0,1.850842312E-2,-2.890776098E-1,-1.861494780E-1
3.150451671E0,2.383458801E-2,-2.880123854E-1,-2.010627389E-1
3.152937661E0,2.489982173E-2,-2.901428342E-1,-2.117150575E-1
3.155423651E0,2.383458801E-2,-2.922733128E-1,-2.266283184E-1
3.157892192E0,2.596505545E-2,-2.922733128E-1,-2.383458912E-1
3.160378182E0,3.235645220E-2,-2.933385372E-1,-2.532591522E-1
3.162864171E0,3.555215150E-2,-2.933385372E-1,-2.713681161E-1
3.165350161E0,3.448691964E-2,-2.944037914E-1,-2.905423045E-1
3.167836151E0,3.981308267E-2,-2.986647189E-1,-3.054555655E-1
3.170322140E0,4.194355011E-2,-2.965342402E-1,-3.193036020E-1
3.172808078E0,4.513924941E-2,-2.975994647E-1,-3.374125659E-1
3.175294067E0,4.513924941E-2,-3.007951677E-1,-3.565867543E-1
3.177780057E0,5.153064802E-2,-2.997299433E-1,-3.704347908E-1
3.180266046E0,5.366111174E-2,-3.018604219E-1,-3.862801194E-1
3.182752036E0,5.579157919E-2,-3.039908707E-1,-4.022586346E-1
3.185238026E0,6.111774594E-2,-3.007951677E-1,-4.182371199E-1
3.187729432E0,6.644391268E-2,-3.029256463E-1,-4.342156053E-1
3.190215421E0,7.177007198E-2,-3.061213493E-1,-4.501941204E-1
3.192701411E0,7.496577501E-2,-3.029256463E-1,-4.672378302E-1
3.195187401E0,7.709623873E-2,-3.061213493E-1,-4.789553881E-1
3.197673390E0,8.135717362E-2,-3.071865737E-1,-4.874772727E-1
3.200159380E0,8.455286920E-2,-3.061213493E-1,-5.023905039E-1
3.202645317E0,8.774857223E-2,-3.071865737E-1,-5.151733160E-1
3.205131307E0,9.200949967E-2,-3.061213493E-1,-5.258256793E-1
3.207617296E0,9.520520270E-2,-3.039908707E-1,-5.364779830E-1
3.210103286E0,1.005313694E-1,-3.061213493E-1,-5.460650921E-1
3.212589276E0,1.005313694E-1,-3.061213493E-1,-5.524564981E-1
3.215075265E0,1.047922969E-1,-3.061213493E-1,-5.577826500E-1
3.217526567E0,1.079879999E-1,-3.071865737E-1,-5.663045049E-1
3.220012557E0,1.101184636E-1,-3.082517982E-1,-5.748263597E-1
3.222498546E0,1.111836955E-1,-3.093170524E-1,-5.822830200E-1
3.224984536E0,1.111836955E-1,-3.082517982E-1,-5.865439177E-1
3.227470526E0,1.154446304E-1,-3.082517982E-1,-5.918700695E-1
3.229956515E0,1.175750941E-1,-3.125127256E-1,-5.961310267E-1
3.232442453E0,1.143793985E-1,-3.093170524E-1,-6.003919840E-1
3.234928442E0,1.165098622E-1,-3.103822768E-1,-6.003919840E-1
3.237414432E0,1.154446304E-1,-3.114475012E-1,-6.046528816E-1
3.239900421E0,1.165098622E-1,-3.125127256E-1,-6.046528816E-1
3.242386411E0,1.154446304E-1,-3.146432042E-1,-6.035876870E-1
3.244872401E0,1.154446304E-1,-3.167736828E-1,-6.067833900E-1
3.247318859E0,1.143793985E-1,-3.167736828E-1,-6.089138389E-1
3.249804849E0,1.090532318E-1,-3.146432042E-1,-6.067833900E-1
3.252290838E0,1.058575287E-1,-3.135779798E-1,-6.067833900E-1
3.254776828E0,1.047922969E-1,-3.178389072E-1,-6.067833900E-1
3.257262817E0,9.627043456E-2,-3.167736828E-1,-6.078485847E-1
3.259748807E0,9.733566642E-2,-3.178389072E-1,-6.046528816E-1
3.262234744E0,9.627043456E-2,-3.199693561E-1,-6.025224328E-1
3.264720734E0,9.413997084E-2,-3.146432042E-1,-5.982614756E-1
3.267206724E0,8.987903595E-2,-3.146432042E-1,-5.918700695E-1
3.269692713E0,8.029194176E-2,-3.199693561E-1,-5.918700695E-1
3.272178703E0,7.496577501E-2,-3.220998347E-1,-5.865439177E-1
3.274664692E0,7.390054315E-2,-3.210346103E-1,-5.844134688E-1
3.277169015E0,6.857437640E-2,-3.189041317E-1,-5.812177658E-1
3.279655005E0,6.431344151E-2,-3.178389072E-1,-5.769568086E-1
3.282140994E0,5.366111174E-2,-3.178389072E-1,-5.737611651E-1
3.284626984E0,5.472634733E-2,-3.167736828E-1,-5.673697591E-1
3.287112974E0,4.940018058E-2,-3.178389072E-1,-5.631088018E-1
3.289598963E0,4.087831825E-2,-3.210346103E-1,-5.545869470E-1
3.292084901E0,3.555215150E-2,-3.178389072E-1,-5.481955409E-1
3.294570890E0,3.129122034E-2,-3.210346103E-1,-5.460650921E-1
3.297056880E0,2.489982173E-2,-3.210346103E-1,-5.407389402E-1
3.299542869E0,2.489982173E-2,-3.231650591E-1,-5.332822800E-1
3.302028859E0,1.531272475E-2,-3.210346103E-1,-5.247604251E-1
3.304514849E0,1.850842312E-2,-3.210346103E-1,-5.194342732E-1
3.306974796E0,1.424749196E-2,-3.199693561E-1,-5.098471642E-1
3.309460786E0,5.725627299E-3,-3.167736828E-1,-5.023905039E-1
3.311946776E0,4.660394508E-3,-3.157084286E-1,-4.917382002E-1
3.314432765E0,-2.796236658E-3,-3.220998347E-1,-4.810858667E-1
3.316918755E0,-2.796236658E-3,-3.199693561E-1,-4.714987576E-1
3.319404744E0,-4.926702939E-3,-3.189041317E-1,-4.608464241E-1
3.321890682E0,-4.926702939E-3,-3.210346103E-1,-4.512593448E-1
3.324376671E0,-1.131810062E-2,-3.199693561E-1,-4.374113083E-1
3.326862661E0,-1.451379992E-2,-3.199693561E-1,-4.256937504E-1
3.329348651E0,-1.451379992E-2,-3.199693561E-1,-4.139761925E-1
3.331834640E0,-1.664426550E-2,-3.199693561E-1,-3.958672285E-1
3.334320630E0,-1.451379992E-2,-3.210346103E-1,-3.841496706E-1
3.336793442E0,-1.770949923E-2,-3.189041317E-1,-3.704347908E-1
3.339279432E0,-2.090519853E-2,-3.199693561E-1,-3.555215299E-1
3.341765421E0,-2.303566411E-2,-3.231650591E-1,-3.363473415E-1
3.344251411E0,-2.303566411E-2,-3.199693561E-1,-3.224993050E-1
3.346737401E0,-2.090519853E-2,-3.167736828E-1,-3.086512685E-1
3.349223390E0,-2.303566411E-2,-3.189041317E-1,-2.905423045E-1
3.351709328E0,-2.516612969E-2,-3.189041317E-1,-2.756290436E-1
3.354195317E0,-2.410089783E-2,-3.167736828E-1,-2.607157826E-1
3.356681307E0,-2.410089783E-2,-3.135779798E-1,-2.415415943E-1
3.359167349E0,-1.983996481E-2,-3.167736828E-1,-2.255630940E-1
3.361653338E0,-1.770949923E-2,-3.178389072E-1,-2.095845938E-1
3.364139276E0,-1.877473295E-2,-3.189041317E-1,-1.946713328E-1
3.366608859E0,-1.770949923E-2,-3.167736828E-1,-1.786928326E-1
3.369094849E0,-1.557903271E-2,-3.167736828E-1,-1.637795717E-1
3.371580838E0,-1.451379992E-2,-3.178389072E-1,-1.478010863E-1
3.374066828E0,-1.344856713E-2,-3.199693561E-1,-1.318225861E-1
3.376552817E0,-1.344856713E-2,-3.167736828E-1,-1.158440933E-1
3.379038807E0,-9.187635034E-3,-3.178389072E-1,-9.986559302E-2
3.381524744E0,-4.926702939E-3,-3.125127256E-1,-9.027849883E-2
3.384010734E0,-8.122402243E-3,-3.103822768E-1,-8.175663650E-2
3.386496724E0,-7.057168987E-3,-3.157084286E-1,-6.577813625E-2
3.388982765E0,-3.861469682E-3,-3.135779798E-1,-5.832150951E-2
3.391468703E0,-3.861469682E-3,-3.125127256E-1,-5.086487532E-2
3.393954692E0,-2.796236658E-3,-3.146432042E-1,-3.914731368E-2
3.396448911E0,3.994623839E-4,-3.157084286E-1,-3.169068322E-2
3.398934901E0,-6.657706108E-4,-3.125127256E-1,-2.742975019E-2
3.401420890E0,1.464695437E-3,-3.103822768E-1,-2.210358530E-2
3.403906880E0,4.660394508E-3,-3.071865737E-1,-1.677742042E-2
3.406392869E0,2.529928461E-3,-3.061213493E-1,-1.358172111E-2
3.408878859E0,5.725627299E-3,-3.039908707E-1,-9.320789017E-3
3.411364796E0,6.790860556E-3,-3.061213493E-1,-9.320789017E-3
3.413850786E0,3.595161485E-3,-3.039908707E-1,-9.320789017E-3
3.416336776E0,6.790860556E-3,-3.029256463E-1,-1.251648832E-2
3.418822765E0,7.856093347E-3,-3.007951677E-1,-1.038602181E-2
3.421308807E0,8.921326138E-3,-2.986647189E-1,-1.571218669E-2
3.423794744E0,6.790860556E-3,-2.997299433E-1,-2.103835158E-2
3.426253182E0,1.211702544E-2,-2.975994647E-1,-2.529928461E-2
3.428739171E0,1.211702544E-2,-2.965342402E-1,-3.062544949E-2
3.431225161E0,1.105179265E-2,-2.922733128E-1,-3.382114694E-2
3.433711151E0,1.211702544E-2,-2.922733128E-1,-4.127778113E-2
3.436197140E0,1.531272475E-2,-2.901428342E-1,-4.660394415E-2
3.438683130E0,1.744319126E-2,-2.901428342E-1,-5.725627393E-2
3.441169067E0,1.637795754E-2,-2.880123854E-1,-6.471290439E-2
3.443655057E0,1.637795754E-2,-2.848166823E-1,-7.323476672E-2
3.446141046E0,1.850842312E-2,-2.858819067E-1,-8.495233208E-2
3.448627036E0,1.744319126E-2,-2.837514579E-1,-9.560466558E-2
3.451113026E0,2.063889056E-2,-2.805557549E-1,-1.073222235E-1
3.453599015E0,2.596505545E-2,-2.773600519E-1,-1.137136221E-1
3.456069744E0,2.809552103E-2,-2.752295732E-1,-1.243659556E-1
3.458555734E0,2.276935615E-2,-2.752295732E-1,-1.339530498E-1
3.461041724E0,2.703028731E-2,-2.730991244E-1,-1.478010863E-1
3.463527713E0,3.129122034E-2,-2.688381970E-1,-1.573881805E-1
3.466013703E0,3.129122034E-2,-2.699034214E-1,-1.659100503E-1
3.468499692E0,3.235645220E-2,-2.688381970E-1,-1.765623689E-1
3.470985630E0,3.555215150E-2,-2.645772398E-1,-1.882799417E-1
3.473471619E0,3.768261895E-2,-2.603163123E-1,-1.978670359E-1
3.475957609E0,3.981308267E-2,-2.592510879E-1,-2.063889056E-1
3.478443599E0,3.981308267E-2,-2.581858635E-1,-2.191716880E-1
3.480929588E0,3.981308267E-2,-2.539249361E-1,-2.276935577E-1
3.483415578E0,4.513924941E-2,-2.539249361E-1,-2.362154275E-1
3.485897869E0,4.407401755E-2,-2.539249361E-1,-2.394111156E-1
3.488383859E0,4.620448127E-2,-2.496639937E-1,-2.489982247E-1
3.490869849E0,4.833494872E-2,-2.454030514E-1,-2.543243766E-1
3.493355838E0,5.153064802E-2,-2.411421239E-1,-2.575200796E-1
3.495841828E0,5.153064802E-2,-2.422073632E-1,-2.660419345E-1
3.498327817E0,5.366111174E-2,-2.368811965E-1,-2.703028917E-1
3.500813755E0,5.153064802E-2,-2.379464209E-1,-2.734985650E-1
3.503299744E0,5.472634733E-2,-2.368811965E-1,-2.820204496E-1
3.505785734E0,5.685681105E-2,-2.326202542E-1,-2.788247466E-1
3.508271724E0,5.685681105E-2,-2.294245660E-1,-2.820204496E-1
3.510757713E0,5.685681105E-2,-2.294245660E-1,-2.852161527E-1
3.513243703E0,5.579157919E-2,-2.304897904E-1,-2.873466015E-1
3.515690942E0,5.472634733E-2,-2.219679356E-1,-2.894770801E-1
3.518176932E0,5.153064802E-2,-2.209026963E-1,-2.926727831E-1
3.520662921E0,5.472634733E-2,-2.198374718E-1,-2.916075289E-1
3.523148911E0,5.366111174E-2,-2.166417688E-1,-2.916075289E-1
3.525634901E0,5.579157919E-2,-2.123808414E-1,-2.905423045E-1
3.528120890E0,5.153064802E-2,-2.134460658E-1,-2.884118557E-1
3.530606828E0,5.366111174E-2,-2.113156021E-1,-2.884118557E-1
3.533092817E0,5.046541616E-2,-2.091851383E-1,-2.862813771E-1
3.535578807E0,4.194355011E-2,-2.070546746E-1,-2.830856740E-1
3.538064796E0,4.300878197E-2,-2.017285079E-1,-2.830856740E-1
3.540550786E0,4.300878197E-2,-2.027937323E-1,-2.777595222E-1
3.543036776E0,4.087831825E-2,-2.017285079E-1,-2.745638192E-1
3.545504953E0,3.874785081E-2,-1.985328048E-1,-2.724333405E-1
3.547990942E0,3.448691964E-2,-1.995980442E-1,-2.692376375E-1
3.550476932E0,3.129122034E-2,-1.910761744E-1,-2.617810071E-1
3.552962921E0,2.916075476E-2,-1.910761744E-1,-2.607157826E-1
3.555448911E0,2.276935615E-2,-1.910761744E-1,-2.543243766E-1
3.557934901E0,1.744319126E-2,-1.868152469E-1,-2.521939278E-1
3.560420838E0,1.424749196E-2,-1.846847683E-1,-2.458025217E-1
3.562906828E0,1.211702544E-2,-1.846847683E-1,-2.404763550E-1
3.565392817E0,6.790860556E-3,-1.793586165E-1,-2.394111156E-1
3.567878807E0,1.464695437E-3,-1.772281379E-1,-2.287587970E-1
3.570364796E0,3.994623839E-4,-1.729672104E-1,-2.255630940E-1
3.572850786E0,-2.796236658E-3,-1.697715074E-1,-2.149107605E-1
3.575321567E0,-1.025286783E-2,-1.697715074E-1,-2.117150575E-1
3.577807557E0,-1.131810062E-2,-1.676410437E-1,-2.042584270E-1
3.580293546E0,-1.344856713E-2,-1.644453406E-1,-1.978670359E-1
3.582779536E0,-1.557903271E-2,-1.623148769E-1,-1.914756298E-1
3.585265526E0,-2.516612969E-2,-1.623148769E-1,-1.797580719E-1
3.587751515E0,-2.729659714E-2,-1.612496525E-1,-1.733666807E-1
3.590237453E0,-2.836182900E-2,-1.559234858E-1,-1.659100503E-1
3.592723442E0,-3.049229458E-2,-1.516625583E-1,-1.573881805E-1
3.595209432E0,-2.942706272E-2,-1.484668553E-1,-1.467358470E-1
3.597695421E0,-3.368799388E-2,-1.495320797E-1,-1.371487528E-1
3.600181411E0,-4.007939249E-2,-1.484668553E-1,-1.296921223E-1
3.602667401E0,-4.114462435E-2,-1.410102248E-1,-1.169093251E-1
3.605136724E0,-4.220985994E-2,-1.399449855E-1,-1.030612960E-1
3.607622453E0,-4.540555924E-2,-1.399449855E-1,-9.134373069E-2
3.610108182E0,-4.647079110E-2,-1.356840581E-1,-8.388710022E-2
3.612593911E0,-4.540555924E-2,-1.356840581E-1,-6.897383928E-2
3.615079640E0,-4.966649041E-2,-1.314231306E-1,-5.512581021E-2
3.617565369E0,-4.753602296E-2,-1.292926520E-1,-4.021254554E-2
3.620051099E0,-4.860125855E-2,-1.292926520E-1,-2.742975019E-2
3.622536828E0,-4.753602296E-2,-1.239664927E-1,-1.464695390E-2
3.625022557E0,-5.073172227E-2,-1.197055578E-1,-7.989247679E-4
3.627508286E0,-4.647079110E-2,-1.207707971E-1,1.517957076E-2
3.629994015E0,-4.647079110E-2,-1.175750941E-1,3.009283356E-2
3.632479744E0,-4.753602296E-2,-1.175750941E-1,4.394086078E-2
3.634956619E0,-4.434032366E-2,-1.133141592E-1,5.778888986E-2
3.637442349E0,-4.434032366E-2,-1.090532318E-1,6.950645149E-2
3.639928078E0,-4.220985994E-2,-1.069227681E-1,8.655018359E-2
3.642413807E0,-3.794892505E-2,-1.037270650E-1,1.014634445E-1
3.644899536E0,-3.581846133E-2,-1.037270650E-1,1.206376404E-1
3.647385265E0,-3.155753016E-2,-1.037270650E-1,1.366161406E-1
3.649870994E0,-2.836182900E-2,-9.946613014E-2,1.440727711E-1
3.652356724E0,-2.623136342E-2,-9.733566642E-2,1.589860320E-1
3.654842453E0,-2.410089783E-2,-9.094426781E-2,1.728340536E-1
3.657328182E0,-2.090519853E-2,-8.987903595E-2,1.845516264E-1
3.659813911E0,-2.090519853E-2,-8.774857223E-2,1.962691844E-1
3.662299640E0,-1.770949923E-2,-8.774857223E-2,2.111824453E-1
3.664770630E0,-1.451379992E-2,-8.668334037E-2,2.207695395E-1
3.667256359E0,-9.187635034E-3,-8.242240548E-2,2.280930281E-1
3.669742088E0,-1.025286783E-2,-7.709623873E-2,2.408758104E-1
3.672227817E0,-8.122402243E-3,-7.496577501E-2,2.483324558E-1
3.674713546E0,-3.861469682E-3,-7.177007198E-2,2.579195499E-1
3.677199276E0,1.464695437E-3,-6.857437640E-2,2.664414048E-1
3.679685005E0,2.529928461E-3,-6.750914454E-2,2.760285139E-1
3.682170734E0,4.660394508E-3,-6.218297780E-2,2.802894413E-1
3.684656463E0,7.856093347E-3,-5.792204663E-2,2.834851444E-1
3.687142192E0,7.856093347E-3,-6.111774594E-2,2.909417748E-1
3.689627921E0,9.986559860E-3,-5.898727849E-2,2.962679267E-1
3.692113703E0,1.211702544E-2,-5.579157919E-2,2.994636297E-1
3.694572244E0,1.211702544E-2,-5.366111174E-2,3.037245572E-1
3.697057974E0,1.531272475E-2,-5.046541616E-2,3.047898114E-1
3.699543703E0,2.276935615E-2,-4.726971686E-2,3.069202602E-1
3.702029432E0,2.276935615E-2,-4.194355011E-2,3.101159632E-1
3.704515161E0,2.383458801E-2,-3.874785081E-2,3.111811876E-1
3.707000890E0,2.809552103E-2,-3.661738336E-2,3.111811876E-1
3.709486619E0,2.809552103E-2,-3.448691964E-2,3.101159632E-1
3.711972349E0,3.022598661E-2,-2.809552103E-2,3.058550358E-1
3.714458078E0,2.916075476E-2,-2.596505545E-2,3.005288541E-1
3.716943807E0,3.235645220E-2,-2.170412242E-2,2.962679267E-1
3.719429536E0,3.874785081E-2,-2.063889056E-2,2.952027023E-1
3.721915265E0,3.555215150E-2,-1.757634431E-2,2.898765504E-1
3.724404328E0,3.768261895E-2,-1.757634431E-2,2.856155932E-1
3.726890057E0,3.661738336E-2,-1.331541315E-2,2.824199200E-1
3.729375786E0,3.981308267E-2,-1.118494663E-2,2.770937383E-1
3.731861515E0,3.874785081E-2,-2.663082443E-3,2.685718834E-1
3.734347244E0,4.300878197E-2,-5.326165119E-4,2.621804774E-1
3.736832974E0,4.620448127E-2,5.326165119E-4,2.600499988E-1
3.739318703E0,4.726971686E-2,3.728315700E-3,2.536586225E-1
3.741804432E0,4.513924941E-2,7.989247330E-3,2.451367527E-1
3.744290161E0,4.726971686E-2,9.054481052E-3,2.408758104E-1
3.746775890E0,5.153064802E-2,1.118494663E-2,2.323539555E-1
3.749261619E0,5.153064802E-2,1.757634431E-2,2.291582525E-1
3.751747349E0,5.366111174E-2,1.970681176E-2,2.239652425E-1
3.754219171E0,5.472634733E-2,1.757634431E-2,2.175738513E-1
3.756704901E0,5.259587988E-2,1.864157803E-2,2.122476846E-1
3.759190630E0,5.685681105E-2,2.503297664E-2,2.101172209E-1
3.761676359E0,5.792204663E-2,3.142437339E-2,2.047910541E-1
3.764162088E0,6.111774594E-2,3.781577200E-2,1.983996481E-1
3.766647817E0,6.005251035E-2,3.994623944E-2,1.941387206E-1
3.769133546E0,6.005251035E-2,4.314193875E-2,1.898777932E-1
3.771619276E0,6.218297780E-2,4.527240247E-2,1.866820902E-1
3.774105005E0,6.218297780E-2,4.846810177E-2,1.792254597E-1
3.776590734E0,6.218297780E-2,4.846810177E-2,1.760297567E-1
3.779076463E0,6.644391268E-2,5.272903293E-2,1.738992929E-1
3.781562192E0,6.750914454E-2,5.272903293E-2,1.685731262E-1
3.784035109E0,6.537867337E-2,6.018566713E-2,1.664426625E-1
3.786520838E0,6.537867337E-2,6.551183015E-2,1.675078869E-1
3.789006567E0,6.750914454E-2,6.551183015E-2,1.611164957E-1
3.791492296E0,6.324820966E-2,6.444659829E-2,1.579207927E-1
3.793978026E0,6.218297780E-2,7.190322876E-2,1.579207927E-1
3.796463755E0,6.431344151E-2,7.509893179E-2,1.525946259E-1
3.798949484E0,6.537867337E-2,7.403369248E-2,1.504641622E-1
3.801435213E0,6.218297780E-2,7.722939551E-2,1.493989378E-1
3.803920942E0,5.685681105E-2,8.255556226E-2,1.504641622E-1
3.806406671E0,5.472634733E-2,8.575125784E-2,1.462032348E-1
3.808892401E0,5.685681105E-2,8.788172156E-2,1.440727711E-1
3.811378130E0,5.472634733E-2,9.107742459E-2,1.408770680E-1
3.813854484E0,5.259587988E-2,9.320788831E-2,1.440727711E-1
3.816340213E0,4.833494872E-2,9.533835202E-2,1.430075318E-1
3.818825942E0,4.726971686E-2,1.006645188E-1,1.430075318E-1
3.821311671E0,4.513924941E-2,1.006645188E-1,1.419423074E-1
3.823797401E0,4.087831825E-2,1.027949899E-1,1.408770680E-1
3.826283130E0,3.768261895E-2,1.059906855E-1,1.387466043E-1
3.828768859E0,3.768261895E-2,1.081211492E-1,1.462032348E-1
3.831254588E0,3.555215150E-2,1.123820841E-1,1.504641622E-1
3.833740317E0,2.916075476E-2,1.166430190E-1,1.515294015E-1
3.836226046E0,2.489982173E-2,1.187734827E-1,1.557903290E-1
3.838711776E0,2.383458801E-2,1.187734827E-1,1.600512564E-1
3.841197505E0,1.850842312E-2,1.230344176E-1,1.600512564E-1
3.843669536E0,1.105179265E-2,1.251648813E-1,1.600512564E-1
3.846155265E0,1.424749196E-2,1.262301207E-1,1.664426625E-1
3.848640994E0,1.211702544E-2,1.283605844E-1,1.717688292E-1
3.851126724E0,5.725627299E-3,1.304910481E-1,1.770949960E-1
3.853612453E0,1.464695437E-3,1.304910481E-1,1.802906841E-1
3.856098182E0,3.994623839E-4,1.347519755E-1,1.845516264E-1
3.858583911E0,-4.926702939E-3,1.358172148E-1,1.888125539E-1
3.861069640E0,-5.991935730E-3,1.390129030E-1,1.930734813E-1
3.863555369E0,-9.187635034E-3,1.443390697E-1,1.994648874E-1
3.866041099E0,-1.451379992E-2,1.454043090E-1,2.090519816E-1
3.868526828E0,-1.664426550E-2,1.507304758E-1,2.133129090E-1
3.871012557E0,-2.303566411E-2,1.517957002E-1,2.165086120E-1
3.873484015E0,-2.516612969E-2,1.507304758E-1,2.229000032E-1
3.875969744E0,-2.410089783E-2,1.528609395E-1,2.344844192E-1
3.878455474E0,-2.410089783E-2,1.581871063E-1,2.398105860E-1
3.880941203E0,-3.155753016E-2,1.603175700E-1,2.493976802E-1
3.883426932E0,-3.049229458E-2,1.645784974E-1,2.568543255E-1
3.885912661E0,-3.049229458E-2,1.656437367E-1,2.664414048E-1
3.888398390E0,-3.794892505E-2,1.645784974E-1,2.738980353E-1
3.890884119E0,-3.794892505E-2,1.709699035E-1,2.845503688E-1
3.893369849E0,-4.114462435E-2,1.709699035E-1,2.930722237E-1
3.895855578E0,-3.794892505E-2,1.720351279E-1,3.015941083E-1
3.898341307E0,-4.114462435E-2,1.752308309E-1,3.111811876E-1
3.900827036E0,-4.114462435E-2,1.731003672E-1,3.197030723E-1
3.903301203E0,-4.327509180E-2,1.762960702E-1,3.324858546E-1
3.905786932E0,-4.327509180E-2,1.784265339E-1,3.452686667E-1
3.908272661E0,-3.794892505E-2,1.826874614E-1,3.516600430E-1
3.910758390E0,-3.794892505E-2,1.848179251E-1,3.633776009E-1
3.913244119E0,-3.901416063E-2,1.869483888E-1,3.761604130E-1
3.915729849E0,-4.007939249E-2,1.858831644E-1,3.889431953E-1
3.918215578E0,-3.901416063E-2,1.858831644E-1,3.985303044E-1
3.920701307E0,-3.688369319E-2,1.858831644E-1,4.081174135E-1
3.923187036E0,-3.581846133E-2,1.901440918E-1,4.177044928E-1
3.925672765E0,-3.581846133E-2,1.954702586E-1,4.272916019E-1
3.928158494E0,-3.688369319E-2,1.965354979E-1,4.368786812E-1
3.930644224E0,-3.262276202E-2,1.976007223E-1,4.454005659E-1
3.933116828E0,-2.942706272E-2,1.997311860E-1,4.571181238E-1
3.935602557E0,-2.836182900E-2,2.029268891E-1,4.677704573E-1
3.938088286E0,-2.623136342E-2,2.029268891E-1,4.762923121E-1
3.940574015E0,-2.090519853E-2,2.029268891E-1,4.848141670E-1
3.943059744E0,-1.770949923E-2,2.061225921E-1,4.944012761E-1
3.945545474E0,-1.770949923E-2,2.071878165E-1,5.018579364E-1
3.948031203E0,-1.770949923E-2,2.103835195E-1,5.135754943E-1
3.950516932E0,-1.451379992E-2,2.125139832E-1,5.178363919E-1
3.953002661E0,-1.131810062E-2,2.135792226E-1,5.274235010E-1
3.955488390E0,-4.926702939E-3,2.167749256E-1,5.316844583E-1
3.957974119E0,-4.926702939E-3,2.178401500E-1,5.370106101E-1
3.960459849E0,-4.926702939E-3,2.199706137E-1,5.423367620E-1
3.962932713E0,1.464695437E-3,2.231663167E-1,5.508586168E-1
3.965418442E0,-6.657706108E-4,2.242315561E-1,5.540543199E-1
3.967904171E0,3.595161485E-3,2.252967805E-1,5.561847687E-1
3.970389901E0,6.790860556E-3,2.252967805E-1,5.593804717E-1
3.972875630E0,8.921326138E-3,2.295577228E-1,5.593804717E-1
3.975361359E0,1.105179265E-2,2.327534109E-1,5.604457259E-1
3.977847088E0,1.105179265E-2,2.359491140E-1,5.625761747E-1
3.980332817E0,1.318225823E-2,2.338186502E-1,5.625761747E-1
3.982818546E0,1.318225823E-2,2.348838747E-1,5.636414289E-1
3.985304276E0,1.637795754E-2,2.359491140E-1,5.604457259E-1
3.987790057E0,2.170412242E-2,2.412752807E-1,5.583152771E-1
3.990275734E0,2.489982173E-2,2.423405200E-1,5.561847687E-1
3.992748599E0,2.703028731E-2,2.444709837E-1,5.529890656E-1
3.995234328E0,2.489982173E-2,2.466014475E-1,5.529890656E-1
3.997720057E0,2.916075476E-2,2.487319112E-1,5.487281680E-1
4.000205786E0,2.809552103E-2,2.487319112E-1,5.444672108E-1
4.002691515E0,3.022598661E-2,2.497971505E-1,5.423367620E-1
4.005177244E0,3.129122034E-2,2.508623898E-1,5.370106101E-1
4.007662974E0,3.342168778E-2,2.551233172E-1,5.327496529E-1
4.010148703E0,3.342168778E-2,2.551233172E-1,5.231625438E-1
4.012634432E0,3.448691964E-2,2.551233172E-1,5.167711973E-1
4.015120161E0,3.448691964E-2,2.572537661E-1,5.157059431E-1
4.017605890E0,3.768261895E-2,2.604494691E-1,5.114449859E-1
4.020091619E0,3.768261895E-2,2.615146935E-1,5.039883852E-1
4.022565734E0,4.194355011E-2,2.604494691E-1,4.986622036E-1
4.025051463E0,4.087831825E-2,2.647103965E-1,4.922707975E-1
4.027537192E0,4.087831825E-2,2.679060996E-1,4.869446456E-1
4.030022921E0,4.087831825E-2,2.700365782E-1,4.773575366E-1
4.032508651E0,4.087831825E-2,2.689713240E-1,4.709661603E-1
4.034994432E0,4.194355011E-2,2.721670270E-1,4.667052329E-1
4.037480109E0,4.194355011E-2,2.742975056E-1,4.603138268E-1
4.039965838E0,3.874785081E-2,2.774932086E-1,4.517919421E-1
4.042451567E0,3.874785081E-2,2.764279842E-1,4.475310147E-1
4.044937296E0,3.768261895E-2,2.774932086E-1,4.422048628E-1
4.047423026E0,3.661738336E-2,2.774932086E-1,4.326177537E-1
4.049908755E0,3.981308267E-2,2.796236575E-1,4.251611233E-1
4.052382401E0,3.555215150E-2,2.828193605E-1,4.198349714E-1
4.054868130E0,3.342168778E-2,2.828193605E-1,4.145087898E-1
4.057353859E0,3.235645220E-2,2.838846147E-1,4.091826379E-1
4.059839588E0,3.129122034E-2,2.860150635E-1,4.027912319E-1
4.062325317E0,2.809552103E-2,2.860150635E-1,3.963998258E-1
4.064811046E0,2.916075476E-2,2.870802879E-1,3.889431953E-1
4.067296776E0,2.703028731E-2,2.881455421E-1,3.825518191E-1
4.069782505E0,2.809552103E-2,2.892107666E-1,3.793561161E-1
4.072268234E0,2.276935615E-2,2.913412452E-1,3.772256374E-1
4.074753963E0,1.637795754E-2,2.913412452E-1,3.697690070E-1
4.077239692E0,1.957365684E-2,2.924064696E-1,3.665733039E-1
4.079725421E0,1.744319126E-2,2.913412452E-1,3.601819277E-1
4.082199067E0,1.424749196E-2,2.966673970E-1,3.591166735E-1
4.084684796E0,1.850842312E-2,2.966673970E-1,3.580514491E-1
4.087170526E0,1.318225823E-2,2.987978756E-1,3.516600430E-1
4.089656255E0,6.790860556E-3,2.956021726E-1,3.473991156E-1
4.092141984E0,4.660394508E-3,2.977326214E-1,3.463338912E-1
4.094627713E0,6.790860556E-3,2.977326214E-1,3.420729637E-1
4.097113442E0,1.464695437E-3,2.977326214E-1,3.378120363E-1
4.099599171E0,-2.796236658E-3,2.998631001E-1,3.314206302E-1
4.102084901E0,-5.991935730E-3,2.998631001E-1,3.324858546E-1
4.104570630E0,-1.238333434E-2,3.009283245E-1,3.303554058E-1
4.107056359E0,-1.131810062E-2,3.019935489E-1,3.314206302E-1
4.109542088E0,-1.451379992E-2,2.998631001E-1,3.303554058E-1
4.112016359E0,-1.664426550E-2,3.009283245E-1,3.292901516E-1
4.114501880E0,-1.983996481E-2,3.019935489E-1,3.314206302E-1
4.116987453E0,-2.090519853E-2,3.041240275E-1,3.303554058E-1
4.119472974E0,-2.729659714E-2,3.073197305E-1,3.314206302E-1
4.121958494E0,-2.942706272E-2,3.051892519E-1,3.303554058E-1
4.124444015E0,-3.155753016E-2,3.041240275E-1,3.271597028E-1
4.126929536E0,-3.475322574E-2,3.073197305E-1,3.324858546E-1
4.129415057E0,-3.794892505E-2,3.073197305E-1,3.335510790E-1
4.131900578E0,-3.688369319E-2,3.062545061E-1,3.356815577E-1
4.134386099E0,-4.327509180E-2,3.030588031E-1,3.378120363E-1
4.136871619E0,-4.860125855E-2,3.019935489E-1,3.399424851E-1
4.139357192E0,-4.860125855E-2,3.062545061E-1,3.410077095E-1
4.141831515E0,-4.966649041E-2,3.041240275E-1,3.442034125E-1
4.144317036E0,-5.286218971E-2,3.030588031E-1,3.473991156E-1
4.146802609E0,-5.712312087E-2,3.030588031E-1,3.527252972E-1
4.149288130E0,-5.605788901E-2,3.030588031E-1,3.537905216E-1
4.151773651E0,-6.138405204E-2,3.009283245E-1,3.612471521E-1
4.154259171E0,-6.457975507E-2,2.987978756E-1,3.655080795E-1
4.156744692E0,-6.244928762E-2,2.998631001E-1,3.687037826E-1
4.159230213E0,-6.457975507E-2,2.998631001E-1,3.697690070E-1
4.161715734E0,-6.777545065E-2,2.987978756E-1,3.740299344E-1
4.164201255E0,-6.777545065E-2,2.987978756E-1,3.825518191E-1
4.166686776E0,-7.097115368E-2,2.977326214E-1,3.878779709E-1
4.169172296E0,-7.310161740E-2,2.977326214E-1,3.953346014E-1
4.171647349E0,-6.884068251E-2,3.009283245E-1,4.017260075E-1
4.174132869E0,-7.203638554E-2,2.956021726E-1,4.081174135E-1
4.176618442E0,-7.310161740E-2,2.945369184E-1,4.155740440E-1
4.179103963E0,-7.203638554E-2,2.956021726E-1,4.198349714E-1
4.181589484E0,-7.416684926E-2,2.924064696E-1,4.272916019E-1
4.184075005E0,-7.629731297E-2,2.924064696E-1,4.336830080E-1
4.186560526E0,-7.416684926E-2,2.913412452E-1,4.390091598E-1
4.189046046E0,-7.416684926E-2,2.913412452E-1,4.485962689E-1
4.191531567E0,-7.310161740E-2,2.892107666E-1,4.581833482E-1
4.194017088E0,-7.416684926E-2,2.881455421E-1,4.603138268E-1
4.196502609E0,-7.203638554E-2,2.881455421E-1,4.688356817E-1
4.198988130E0,-7.097115368E-2,2.817541361E-1,4.784227908E-1
4.201464119E0,-6.777545065E-2,2.870802879E-1,4.837489426E-1
4.203949640E0,-6.777545065E-2,2.860150635E-1,4.901403487E-1
4.206435213E0,-6.990591437E-2,2.838846147E-1,4.975969791E-1
4.208920734E0,-6.671021879E-2,2.838846147E-1,5.018579364E-1
4.211406255E0,-6.244928762E-2,2.785584331E-1,5.114449859E-1
4.213891776E0,-6.244928762E-2,2.785584331E-1,5.157059431E-1
4.216377296E0,-6.351451576E-2,2.764279842E-1,5.189016461E-1
4.218862817E0,-6.138405204E-2,2.764279842E-1,5.284887552E-1
4.221348338E0,-6.031882018E-2,2.732322812E-1,5.327496529E-1
4.223833859E0,-5.712312087E-2,2.742975056E-1,5.380758047E-1
4.226319380E0,-5.712312087E-2,2.742975056E-1,5.402063131E-1
4.228804901E0,-5.499265343E-2,2.711018026E-1,5.434020162E-1
4.231281567E0,-4.860125855E-2,2.679060996E-1,5.476629138E-1
4.233767088E0,-5.286218971E-2,2.679060996E-1,5.487281680E-1
4.236252661E0,-5.179695413E-2,2.647103965E-1,5.497934222E-1
4.238738182E0,-5.392742157E-2,2.615146935E-1,5.540543199E-1
4.241223703E0,-4.860125855E-2,2.615146935E-1,5.561847687E-1
4.243709224E0,-4.540555924E-2,2.604494691E-1,5.508586168E-1
4.246194744E0,-4.327509180E-2,2.604494691E-1,5.540543199E-1
4.248680265E0,-4.114462435E-2,2.625799477E-1,5.561847687E-1
4.251165786E0,-3.901416063E-2,2.583190203E-1,5.508586168E-1
4.253651307E0,-3.901416063E-2,2.540580630E-1,5.497934222E-1
4.256136828E0,-3.794892505E-2,2.540580630E-1,5.508586168E-1
4.258622349E0,-3.475322574E-2,2.497971505E-1,5.476629138E-1
4.261096255E0,-3.368799388E-2,2.476666719E-1,5.423367620E-1
4.263581776E0,-3.262276202E-2,2.508623898E-1,5.402063131E-1
4.266067349E0,-2.836182900E-2,2.508623898E-1,5.338149071E-1
4.268552869E0,-2.942706272E-2,2.476666719E-1,5.295539498E-1
4.271038390E0,-3.049229458E-2,2.455362082E-1,5.242277980E-1
4.273523911E0,-2.516612969E-2,2.444709837E-1,5.199668407E-1
4.276009432E0,-2.623136342E-2,2.423405200E-1,5.135754943E-1
4.278494953E0,-2.410089783E-2,2.412752807E-1,5.071840882E-1
4.280980474E0,-2.410089783E-2,2.380795777E-1,5.018579364E-1
4.283465994E0,-2.197043039E-2,2.380795777E-1,4.944012761E-1
4.285951515E0,-2.303566411E-2,2.359491140E-1,4.869446456E-1
4.288437036E0,-1.983996481E-2,2.327534109E-1,4.762923121E-1
4.290913286E0,-1.983996481E-2,2.274272442E-1,4.730966091E-1
4.293398807E0,-1.983996481E-2,2.284924835E-1,4.645747542E-1
4.295884380E0,-1.877473295E-2,2.306229472E-1,4.581833482E-1
4.298369901E0,-1.983996481E-2,2.284924835E-1,4.485962689E-1
4.300855421E0,-1.770949923E-2,2.252967805E-1,4.411396384E-1
4.303340942E0,-1.770949923E-2,2.252967805E-1,4.326177537E-1
4.305826463E0,-1.664426550E-2,2.189053893E-1,4.251611233E-1
4.308311984E0,-1.557903271E-2,2.199706137E-1,4.145087898E-1
4.310797505E0,-1.557903271E-2,2.199706137E-1,4.038564563E-1
4.313283026E0,-1.664426550E-2,2.157096863E-1,3.942693770E-1
4.315768546E0,-1.557903271E-2,2.157096863E-1,3.868127465E-1
4.318254067E0,-2.090519853E-2,2.157096863E-1,3.782908916E-1
4.320730057E0,-1.770949923E-2,2.125139832E-1,3.697690070E-1
4.323215578E0,-1.770949923E-2,2.114487588E-1,3.591166735E-1
4.325701151E0,-1.770949923E-2,2.082530558E-1,3.516600430E-1
4.328186671E0,-1.770949923E-2,2.050573528E-1,3.442034125E-1
4.330672192E0,-1.557903271E-2,2.039921284E-1,3.324858546E-1
4.333157713E0,-2.197043039E-2,2.029268891E-1,3.207682967E-1
4.335643234E0,-2.090519853E-2,1.997311860E-1,3.122464418E-1
4.338128755E0,-1.344856713E-2,1.986659616E-1,3.079854846E-1
4.340614276E0,-1.770949923E-2,1.997311860E-1,2.973331809E-1
4.343099796E0,-1.877473295E-2,1.944050342E-1,2.877460718E-1
4.345585317E0,-2.197043039E-2,1.922745556E-1,2.792242169E-1
4.348070838E0,-2.623136342E-2,1.901440918E-1,2.707023323E-1
4.350546203E0,-2.410089783E-2,1.901440918E-1,2.621804774E-1
4.353031724E0,-2.516612969E-2,1.890788674E-1,2.547238469E-1
4.355517296E0,-2.836182900E-2,1.880136281E-1,2.493976802E-1
4.358002817E0,-3.049229458E-2,1.858831644E-1,2.419410497E-1
4.360488338E0,-3.262276202E-2,1.794917583E-1,2.323539555E-1
4.362973859E0,-3.155753016E-2,1.762960702E-1,2.239652425E-1
4.365459380E0,-3.262276202E-2,1.762960702E-1,2.197043151E-1
4.367944901E0,-3.262276202E-2,1.784265339E-1,2.143781483E-1
4.370430421E0,-3.901416063E-2,1.731003672E-1,2.101172209E-1
4.372915942E0,-4.327509180E-2,1.720351279E-1,2.005301118E-1
4.375401463E0,-4.434032366E-2,1.709699035E-1,1.952039450E-1
4.377886984E0,-4.647079110E-2,1.656437367E-1,1.898777932E-1
4.380379953E0,-5.073172227E-2,1.656437367E-1,1.824211627E-1
4.382865474E0,-5.179695413E-2,1.635132730E-1,1.792254597E-1
4.385351046E0,-5.179695413E-2,1.613828093E-1,1.792254597E-1
4.387836567E0,-5.818835273E-2,1.571218669E-1,1.696383655E-1
4.390322088E0,-6.031882018E-2,1.496652365E-1,1.675078869E-1
4.392807609E0,-5.925358832E-2,1.549914032E-1,1.653774232E-1
4.395293130E0,-6.351451576E-2,1.539261788E-1,1.579207927E-1
4.397778651E0,-6.457975507E-2,1.475347728E-1,1.536598653E-1
4.400264171E0,-6.564498693E-2,1.443390697E-1,1.557903290E-1
4.402749692E0,-6.884068251E-2,1.443390697E-1,1.547250897E-1
4.405235213E0,-6.990591437E-2,1.422086060E-1,1.515294015E-1
4.407720734E0,-7.203638554E-2,1.379476786E-1,1.483336985E-1
4.410180161E0,-7.523208112E-2,1.379476786E-1,1.472684592E-1
4.412665682E0,-7.736254483E-2,1.358172148E-1,1.483336985E-1
4.415151255E0,-7.629731297E-2,1.326215118E-1,1.515294015E-1
4.417636776E0,-7.736254483E-2,1.294258088E-1,1.504641622E-1
4.420122296E0,-7.736254483E-2,1.262301207E-1,1.462032348E-1
4.422607817E0,-7.842778414E-2,1.251648813E-1,1.472684592E-1
4.425093338E0,-8.588441461E-2,1.219691783E-1,1.515294015E-1
4.427578859E0,-8.481918275E-2,1.177082509E-1,1.547250897E-1
4.430064380E0,-8.055824786E-2,1.145125479E-1,1.557903290E-1
4.432549901E0,-8.588441461E-2,1.134473160E-1,1.589860320E-1
4.435035421E0,-8.694964647E-2,1.123820841E-1,1.568555683E-1
4.437520942E0,-8.375394344E-2,1.070559174E-1,1.611164957E-1
4.439994276E0,-8.694964647E-2,1.049254537E-1,1.664426625E-1
4.442479796E0,-8.588441461E-2,1.027949899E-1,1.685731262E-1
4.444965369E0,-8.481918275E-2,1.006645188E-1,1.696383655E-1
4.447450890E0,-8.694964647E-2,9.746882319E-2,1.749645174E-1
4.449936411E0,-8.694964647E-2,9.427312016E-2,1.802906841E-1
4.452421932E0,-8.481918275E-2,9.214265645E-2,1.824211627E-1
4.454907453E0,-8.481918275E-2,8.788172156E-2,1.834863871E-1
4.457392974E0,-8.481918275E-2,8.362079412E-2,1.909430176E-1
4.459878494E0,-8.268871158E-2,8.255556226E-2,1.962691844E-1
4.462364015E0,-8.375394344E-2,7.722939551E-2,2.015953511E-1
4.464849536E0,-8.055824786E-2,7.403369248E-2,2.069215178E-1
4.467335057E0,-8.162347972E-2,7.296846062E-2,2.101172209E-1
4.469820317E0,-7.842778414E-2,6.870753318E-2,2.133129090E-1
4.472305838E0,-7.416684926E-2,6.764229387E-2,2.175738513E-1
4.474791359E0,-7.310161740E-2,6.338136643E-2,2.250304818E-1
4.477276880E0,-7.203638554E-2,6.125089899E-2,2.280930281E-1
4.479762401E0,-7.203638554E-2,5.698996782E-2,2.312887162E-1
4.482247921E0,-6.990591437E-2,5.485950038E-2,2.366148829E-1
4.484733442E0,-6.457975507E-2,5.059856921E-2,2.430062890E-1
4.487218963E0,-6.351451576E-2,4.740286991E-2,2.462019771E-1
4.489704484E0,-6.457975507E-2,4.633763805E-2,2.515281439E-1
4.492190005E0,-6.138405204E-2,4.101147130E-2,2.536586225E-1
4.494675526E0,-5.712312087E-2,3.888100386E-2,2.589847744E-1
4.497161099E0,-5.818835273E-2,3.568530455E-2,2.557890713E-1
4.499651619E0,-5.605788901E-2,3.035914153E-2,2.664414048E-1
4.502137140E0,-5.286218971E-2,2.609820850E-2,2.717675865E-1
4.504622713E0,-5.179695413E-2,2.396774292E-2,2.707023323E-1
4.507108234E0,-4.647079110E-2,2.290250920E-2,2.696371078E-1
4.509593755E0,-4.434032366E-2,1.757634431E-2,2.738980353E-1
4.512079276E0,-4.434032366E-2,1.544587873E-2,2.749632597E-1
4.514564796E0,-4.327509180E-2,1.225017942E-2,2.738980353E-1
4.517050317E0,-3.688369319E-2,9.054481052E-3,2.749632597E-1
4.519535838E0,-3.581846133E-2,6.924014539E-3,2.770937383E-1
4.522021359E0,-3.155753016E-2,4.793548491E-3,2.770937383E-1
4.524506880E0,-3.049229458E-2,-1.597849536E-3,2.707023323E-1
4.526992401E0,-2.836182900E-2,-2.663082443E-3,2.696371078E-1
4.529456880E0,-2.516612969E-2,-5.858781748E-3,2.675066292E-1
4.531942401E0,-2.516612969E-2,-6.924014539E-3,2.675066292E-1
4.534427974E0,-2.516612969E-2,-7.989247330E-3,2.643109560E-1
4.536913494E0,-2.090519853E-2,-1.331541315E-2,2.600499988E-1
4.539399015E0,-1.983996481E-2,-1.757634431E-2,2.568543255E-1
4.541884536E0,-1.557903271E-2,-1.850842312E-2,2.547238469E-1
4.544370057E0,-1.451379992E-2,-2.170412242E-2,2.493976802E-1
4.546855578E0,-1.025286783E-2,-2.170412242E-2,2.408758104E-1
4.549341099E0,-1.025286783E-2,-2.916075476E-2,2.334191799E-1
4.551826619E0,-7.057168987E-3,-3.022598661E-2,2.291582525E-1
4.554312140E0,-1.731003635E-3,-3.448691964E-2,2.218347788E-1
4.556797661E0,-2.796236658E-3,-3.874785081E-2,2.133129090E-1
4.559283755E0,-2.796236658E-3,-3.981308267E-2,2.090519816E-1
4.561769276E0,2.529928461E-3,-4.194355011E-2,2.037258148E-1
4.564254849E0,5.725627299E-3,-4.620448127E-2,1.941387206E-1
4.566740369E0,7.856093347E-3,-4.620448127E-2,1.845516264E-1
4.569225890E0,9.986559860E-3,-4.726971686E-2,1.770949960E-1
4.571711411E0,1.211702544E-2,-5.579157919E-2,1.717688292E-1
4.574196932E0,1.318225823E-2,-5.685681105E-2,1.632469594E-1
4.576682453E0,1.105179265E-2,-5.792204663E-2,1.536598653E-1
4.579167974E0,1.531272475E-2,-6.111774594E-2,1.462032348E-1
4.581653494E0,2.063889056E-2,-6.431344151E-2,1.387466043E-1
4.584139015E0,1.957365684E-2,-6.644391268E-2,1.280942708E-1
4.586624536E0,2.063889056E-2,-6.644391268E-2,1.185071766E-1
4.589068390E0,2.276935615E-2,-6.750914454E-2,1.099853069E-1
4.591553911E0,2.596505545E-2,-7.283531129E-2,1.003982127E-1
4.594039432E0,2.703028731E-2,-7.496577501E-2,9.400681406E-2
4.596524953E0,2.489982173E-2,-7.922670245E-2,8.228924870E-2
4.599010474E0,3.022598661E-2,-8.029194176E-2,7.483261824E-2
4.601495994E0,3.129122034E-2,-8.242240548E-2,6.311506033E-2
4.603981567E0,3.342168778E-2,-8.561810106E-2,5.352795869E-2
4.606467088E0,3.342168778E-2,-8.668334037E-2,4.713656008E-2
4.608952609E0,3.235645220E-2,-8.774857223E-2,3.861469775E-2
4.611438130E0,3.661738336E-2,-9.307473898E-2,2.796236612E-2
4.613923651E0,3.555215150E-2,-9.307473898E-2,1.731003635E-2
4.616409171E0,3.448691964E-2,-9.413997084E-2,5.592473317E-3
4.618891151E0,3.235645220E-2,-1.015966013E-1,-1.864157850E-3
4.621376515E0,3.448691964E-2,-1.015966013E-1,-1.145125460E-2
4.623861880E0,3.129122034E-2,-1.015966013E-1,-1.890788600E-2
4.626347192E0,3.129122034E-2,-1.058575287E-1,-3.169068322E-2
4.628832557E0,2.596505545E-2,-1.079879999E-1,-4.127778113E-2
4.631317921E0,2.916075476E-2,-1.111836955E-1,-4.979964346E-2
4.633803286E0,2.703028731E-2,-1.133141592E-1,-5.938674137E-2
4.636288651E0,2.596505545E-2,-1.133141592E-1,-7.216953486E-2
4.638774015E0,2.489982173E-2,-1.143793985E-1,-7.536523789E-2
4.641259328E0,2.383458801E-2,-1.186403260E-1,-8.708280325E-2
4.643744692E0,2.489982173E-2,-1.229012609E-1,-9.666989744E-2
4.646230057E0,2.170412242E-2,-1.197055578E-1,-1.062569916E-1
4.648708911E0,1.424749196E-2,-1.250317246E-1,-1.115831584E-1
4.651194276E0,1.424749196E-2,-1.324883550E-1,-1.222354919E-1
4.653679640E0,1.318225823E-2,-1.314231306E-1,-1.296921223E-1
4.656164953E0,7.856093347E-3,-1.292926520E-1,-1.382139921E-1
4.658650317E0,4.660394508E-3,-1.292926520E-1,-1.424749196E-1
4.661135682E0,2.529928461E-3,-1.335535944E-1,-1.499315500E-1
4.663621046E0,1.464695437E-3,-1.378145218E-1,-1.595186442E-1
4.666106411E0,-3.861469682E-3,-1.399449855E-1,-1.637795717E-1
4.668591776E0,-5.991935730E-3,-1.420754492E-1,-1.701709777E-1
4.671077088E0,-1.131810062E-2,-1.452711523E-1,-1.744319052E-1
4.673562453E0,-9.187635034E-3,-1.452711523E-1,-1.786928326E-1
4.676047817E0,-1.344856713E-2,-1.495320797E-1,-1.840189993E-1
4.678524067E0,-2.090519853E-2,-1.495320797E-1,-1.840189993E-1
4.681009432E0,-2.303566411E-2,-1.495320797E-1,-1.936061084E-1
4.683494796E0,-2.303566411E-2,-1.495320797E-1,-1.925408691E-1
4.685980109E0,-2.729659714E-2,-1.537930220E-1,-1.936061084E-1
4.688465474E0,-3.155753016E-2,-1.527277827E-1,-1.957365721E-1
4.690950838E0,-3.049229458E-2,-1.580539495E-1,-1.999974996E-1
4.693436203E0,-3.475322574E-2,-1.655105799E-1,-2.010627389E-1
4.695921567E0,-3.262276202E-2,-1.655105799E-1,-2.031932026E-1
4.698406932E0,-3.688369319E-2,-1.655105799E-1,-2.042584270E-1
4.700892244E0,-4.007939249E-2,-1.676410437E-1,-2.063889056E-1
4.703377609E0,-4.434032366E-2,-1.719019860E-1,-2.042584270E-1
4.705862974E0,-4.327509180E-2,-1.719019860E-1,-2.031932026E-1
4.708341932E0,-4.327509180E-2,-1.729672104E-1,-2.031932026E-1
4.710827296E0,-4.540555924E-2,-1.761629134E-1,-2.031932026E-1
4.713312661E0,-4.647079110E-2,-1.750976741E-1,-2.031932026E-1
4.715797974E0,-4.647079110E-2,-1.761629134E-1,-1.957365721E-1
4.718283338E0,-4.966649041E-2,-1.761629134E-1,-1.968017966E-1
4.720768703E0,-5.179695413E-2,-1.825543046E-1,-1.968017966E-1
4.723254067E0,-4.966649041E-2,-1.868152469E-1,-1.925408691E-1
4.725739432E0,-5.073172227E-2,-1.868152469E-1,-1.893451661E-1
4.728224796E0,-5.179695413E-2,-1.878804713E-1,-1.872147024E-1
4.730710109E0,-5.286218971E-2,-1.910761744E-1,-1.872147024E-1
4.733195474E0,-4.753602296E-2,-1.932066381E-1,-1.818885356E-1
4.735680838E0,-5.073172227E-2,-1.910761744E-1,-1.754971445E-1
4.738157869E0,-5.073172227E-2,-1.932066381E-1,-1.723014414E-1
4.740643234E0,-4.540555924E-2,-1.974675655E-1,-1.680405140E-1
4.743128599E0,-4.434032366E-2,-1.974675655E-1,-1.659100503E-1
4.745613911E0,-4.540555924E-2,-1.985328048E-1,-1.605838835E-1
4.748099276E0,-4.327509180E-2,-2.038589716E-1,-1.573881805E-1
4.750584640E0,-4.007939249E-2,-2.017285079E-1,-1.520620137E-1
4.753070005E0,-3.901416063E-2,-2.027937323E-1,-1.488663107E-1
4.755555369E0,-3.794892505E-2,-2.059894353E-1,-1.424749196E-1
4.758040734E0,-3.581846133E-2,-2.081198990E-1,-1.435401440E-1
4.760526046E0,-3.155753016E-2,-2.091851383E-1,-1.403444558E-1
4.763011411E0,-2.729659714E-2,-2.123808414E-1,-1.350182891E-1
4.765496776E0,-2.623136342E-2,-2.134460658E-1,-1.296921223E-1
4.767975005E0,-2.090519853E-2,-2.187722325E-1,-1.318225861E-1
4.770460369E0,-1.983996481E-2,-2.187722325E-1,-1.296921223E-1
4.772945734E0,-1.770949923E-2,-2.187722325E-1,-1.211702600E-1
4.775431046E0,-1.983996481E-2,-2.209026963E-1,-1.201050207E-1
4.777916411E0,-1.344856713E-2,-2.209026963E-1,-1.190397888E-1
4.780401776E0,-8.122402243E-3,-2.209026963E-1,-1.179745570E-1
4.782887140E0,-7.057168987E-3,-2.230331600E-1,-1.169093251E-1
4.785372505E0,-3.861469682E-3,-2.262288630E-1,-1.147788614E-1
4.787857869E0,-4.926702939E-3,-2.283593267E-1,-1.137136221E-1
4.790343182E0,-6.657706108E-4,-2.251636237E-1,-1.115831584E-1
4.792828546E0,2.529928461E-3,-2.272941023E-1,-1.083874628E-1
4.795313911E0,6.790860556E-3,-2.304897904E-1,-1.094526947E-1
4.797789953E0,9.986559860E-3,-2.272941023E-1,-1.105179265E-1
4.800275317E0,1.318225823E-2,-2.326202542E-1,-1.137136221E-1
4.802760682E0,1.637795754E-2,-2.347507328E-1,-1.126483902E-1
4.805245994E0,1.850842312E-2,-2.326202542E-1,-1.115831584E-1
4.807731359E0,1.850842312E-2,-2.358159572E-1,-1.137136221E-1
4.810216724E0,1.957365684E-2,-2.336854935E-1,-1.147788614E-1
4.812702088E0,2.383458801E-2,-2.358159572E-1,-1.158440933E-1
4.815187453E0,2.596505545E-2,-2.347507328E-1,-1.190397888E-1
4.817672817E0,2.596505545E-2,-2.368811965E-1,-1.211702600E-1
4.820158130E0,3.022598661E-2,-2.390116602E-1,-1.254311949E-1
4.822643494E0,3.129122034E-2,-2.368811965E-1,-1.296921223E-1
4.825128859E0,3.235645220E-2,-2.379464209E-1,-1.328878254E-1
4.827607817E0,3.768261895E-2,-2.390116602E-1,-1.382139921E-1
4.830093182E0,3.661738336E-2,-2.390116602E-1,-1.456706226E-1
4.832578546E0,3.555215150E-2,-2.411421239E-1,-1.456706226E-1
4.835063859E0,4.300878197E-2,-2.400768995E-1,-1.499315500E-1
4.837549224E0,4.194355011E-2,-2.379464209E-1,-1.616491079E-1
4.840034588E0,4.407401755E-2,-2.400768995E-1,-1.691057384E-1
4.842519953E0,4.833494872E-2,-2.379464209E-1,-1.691057384E-1
4.845005317E0,4.726971686E-2,-2.400768995E-1,-1.765623689E-1
4.847490682E0,4.726971686E-2,-2.443378270E-1,-1.893451661E-1
4.849975994E0,4.940018058E-2,-2.454030514E-1,-1.925408691E-1
4.852461359E0,4.940018058E-2,-2.432725877E-1,-1.999974996E-1
4.854946724E0,4.620448127E-2,-2.411421239E-1,-2.149107605E-1
4.857422505E0,4.833494872E-2,-2.432725877E-1,-2.170412242E-1
4.859907869E0,5.366111174E-2,-2.443378270E-1,-2.213021666E-1
4.862393234E0,5.259587988E-2,-2.422073632E-1,-2.308892608E-1
4.864878546E0,5.366111174E-2,-2.464682907E-1,-2.404763550E-1
4.867363911E0,5.366111174E-2,-2.443378270E-1,-2.479329854E-1
4.869849276E0,5.579157919E-2,-2.432725877E-1,-2.575200796E-1
4.872334640E0,5.366111174E-2,-2.443378270E-1,-2.649767101E-1
4.874820005E0,5.366111174E-2,-2.454030514E-1,-2.745638192E-1
4.877305369E0,5.366111174E-2,-2.443378270E-1,-2.820204496E-1
4.879790682E0,5.472634733E-2,-2.411421239E-1,-2.894770801E-1
4.882276046E0,5.153064802E-2,-2.411421239E-1,-2.979989350E-1
4.884761411E0,5.366111174E-2,-2.432725877E-1,-3.075860441E-1
4.887240317E0,5.366111174E-2,-2.432725877E-1,-3.171731234E-1
4.889725682E0,5.259587988E-2,-2.422073632E-1,-3.278254569E-1
4.892211046E0,5.259587988E-2,-2.411421239E-1,-3.342168629E-1
4.894696359E0,5.366111174E-2,-2.432725877E-1,-3.427387178E-1
4.897181724E0,4.940018058E-2,-2.422073632E-1,-3.523258269E-1
4.899667088E0,4.726971686E-2,-2.379464209E-1,-3.587172329E-1
4.902152453E0,4.513924941E-2,-2.411421239E-1,-3.725652397E-1
4.904637817E0,4.513924941E-2,-2.400768995E-1,-3.789566457E-1
4.907123182E0,4.726971686E-2,-2.379464209E-1,-3.862801194E-1
4.909608494E0,4.300878197E-2,-2.390116602E-1,-3.958672285E-1
4.912093859E0,3.661738336E-2,-2.390116602E-1,-4.033238590E-1
4.914579224E0,3.448691964E-2,-2.358159572E-1,-4.097152650E-1
4.917040005E0,3.555215150E-2,-2.379464209E-1,-4.182371199E-1
4.919525369E0,3.129122034E-2,-2.379464209E-1,-4.278241992E-1
4.922010734E0,2.703028731E-2,-2.347507328E-1,-4.320851564E-1
4.924496046E0,3.022598661E-2,-2.358159572E-1,-4.406070113E-1
4.926981411E0,2.703028731E-2,-2.336854935E-1,-4.459331632E-1
4.929466776E0,2.276935615E-2,-2.336854935E-1,-4.501941204E-1
4.931952140E0,1.957365684E-2,-2.326202542E-1,-4.576507509E-1
4.934437505E0,1.957365684E-2,-2.336854935E-1,-4.619116783E-1
4.936922869E0,1.424749196E-2,-2.326202542E-1,-4.640421271E-1
4.939408182E0,9.986559860E-3,-2.315550297E-1,-4.651073813E-1
4.941893546E0,5.725627299E-3,-2.315550297E-1,-4.704335332E-1
4.944378911E0,1.464695437E-3,-2.304897904E-1,-4.746944606E-1
4.946871463E0,-1.731003635E-3,-2.283593267E-1,-4.757596850E-1
4.949356828E0,-5.991935730E-3,-2.294245660E-1,-4.768249393E-1
4.951842192E0,-5.991935730E-3,-2.283593267E-1,-4.821510911E-1
4.954327505E0,-5.991935730E-3,-2.251636237E-1,-4.853467941E-1
4.956812869E0,-8.122402243E-3,-2.240983993E-1,-4.885424972E-1
4.959298234E0,-1.451379992E-2,-2.251636237E-1,-4.896077216E-1
4.961783599E0,-1.877473295E-2,-2.230331600E-1,-4.906729758E-1
4.964268963E0,-1.877473295E-2,-2.262288630E-1,-4.917382002E-1
4.966754328E0,-2.090519853E-2,-2.251636237E-1,-4.896077216E-1
4.969239640E0,-2.197043039E-2,-2.209026963E-1,-4.928034246E-1
4.971725005E0,-2.836182900E-2,-2.209026963E-1,-4.885424972E-1
4.974210369E0,-2.729659714E-2,-2.209026963E-1,-4.885424972E-1
4.976689744E0,-2.516612969E-2,-2.209026963E-1,-4.874772727E-1
4.979175109E0,-3.155753016E-2,-2.198374718E-1,-4.853467941E-1
4.981660474E0,-3.368799388E-2,-2.198374718E-1,-4.874772727E-1
4.984145786E0,-2.942706272E-2,-2.177069932E-1,-4.821510911E-1
4.986631151E0,-3.049229458E-2,-2.166417688E-1,-4.821510911E-1
4.989116567E0,-3.475322574E-2,-2.166417688E-1,-4.810858667E-1
4.991601880E0,-3.475322574E-2,-2.123808414E-1,-4.768249393E-1
4.994087244E0,-3.475322574E-2,-2.145113051E-1,-4.693683088E-1
4.996572609E0,-3.688369319E-2,-2.145113051E-1,-4.651073813E-1
4.999057921E0,-3.155753016E-2,-2.102503628E-1,-4.629769027E-1
