"Time (s)","Linear Acceleration x (m/s^2)","Linear Acceleration y (m/s^2)","Linear Acceleration z (m/s^2)"
8.065198400E-2,4.230371118E-2,7.383823395E-2,-1.554566026E-1
8.558917100E-2,4.961940646E-2,3.862667084E-2,-6.411828101E-2
9.056844200E-2,6.427961588E-2,4.529762268E-2,-2.144619823E-2
9.554776500E-2,5.569624901E-2,-1.406097412E-2,-1.512753218E-2
1.005270880E-1,2.704074979E-2,-3.855991364E-2,1.566950232E-2
1.055063590E-1,8.103996515E-3,-5.035400391E-2,1.118150502E-1
1.104856820E-1,1.956903934E-2,-3.633785248E-2,1.866543144E-1
1.153850050E-1,4.378843307E-2,-3.581523895E-2,2.435028255E-1
1.203642760E-1,4.248732328E-2,-4.444885254E-2,2.520200312E-1
1.253435990E-1,-4.800021648E-3,-4.716014862E-2,2.516428530E-1
1.303229210E-1,2.403324842E-2,-1.624107361E-3,2.425953597E-1
1.353021920E-1,6.378695369E-2,-2.735137939E-3,2.466355264E-1
1.402815150E-1,2.349844575E-2,3.014850616E-2,1.896546334E-1
1.452207860E-1,-2.924138308E-2,2.735233307E-2,4.858346656E-2
1.502000570E-1,-4.416242242E-2,4.411506653E-2,-5.364838243E-2
1.551793800E-1,-5.714330077E-2,6.017875671E-2,-1.339552850E-1
1.601587030E-1,-1.463624537E-1,4.706764221E-2,-2.898881137E-1
1.651379740E-1,-2.226695418E-2,9.075355530E-2,-1.306112707E-1
1.701172960E-1,-2.749899030E-2,9.032630920E-2,-6.050541997E-3
1.750143800E-1,4.996642470E-2,5.098915100E-2,4.073731601E-3
1.799936510E-1,1.425594389E-1,1.902294159E-2,-2.432359755E-2
1.849729740E-1,2.519401312E-1,6.754875183E-3,-5.055385455E-2
1.899522960E-1,3.502742350E-1,3.307056427E-2,-6.654597819E-2
1.949315670E-1,3.962353468E-1,-2.739906311E-3,-5.175137520E-2
1.999108900E-1,3.803460002E-1,-8.398056030E-3,-6.960455328E-2
2.048278170E-1,2.803462148E-1,-6.255626678E-2,-1.528258175E-1
2.098070880E-1,7.585477829E-2,-1.441020966E-1,-1.879713386E-1
2.147864110E-1,-7.774430513E-2,-2.210168839E-1,-1.989040375E-1
2.197657340E-1,-2.167543173E-1,-2.714900970E-1,-7.946826518E-2
2.247450050E-1,-2.720437944E-1,-3.149662018E-1,1.980289817E-2
2.297243280E-1,-2.551823556E-1,-2.690210342E-1,1.228550225E-1
2.346470360E-1,-2.333745062E-1,-2.490282059E-1,2.704615295E-1
2.396263070E-1,-1.053229868E-1,-2.321023941E-1,2.981702089E-1
2.446056300E-1,-1.059323549E-2,-1.504268646E-1,3.190285563E-1
2.495849530E-1,-1.082608104E-2,-1.398239136E-1,2.165502757E-1
2.545642240E-1,-4.303908348E-2,-1.050539017E-1,1.280230135E-1
2.595435460E-1,-1.017044783E-1,-6.419563293E-2,1.373196691E-1
2.644617760E-1,-1.417971551E-1,2.009582520E-2,1.177951097E-1
2.694410460E-1,-4.567787051E-1,-9.967803955E-3,1.829204261E-1
2.744203690E-1,-4.201389849E-1,4.134750366E-2,1.456649303E-1
2.793996920E-1,-4.006922841E-1,1.043758392E-1,1.343133301E-1
2.843789630E-1,-2.719745636E-1,1.203336716E-1,3.187937140E-1
2.893582860E-1,-1.593908668E-1,1.218795776E-1,3.286277354E-1
2.942803690E-1,-1.927093267E-1,8.465862274E-2,1.902900487E-1
2.992596400E-1,-3.690471649E-1,2.349376678E-2,6.192050502E-2
3.042389630E-1,-1.754503250E-1,1.278839111E-1,1.438042969E-1
3.092182860E-1,-3.347387910E-1,8.808517456E-2,9.326630086E-2
3.141975570E-1,-5.267311931E-1,1.030359268E-1,-4.730639234E-2
3.191768800E-1,-1.007680297E-1,1.717901230E-1,2.154752612E-1
3.240937030E-1,2.034992576E-1,2.299785614E-1,3.530808389E-1
3.290729740E-1,4.599298537E-1,2.472686768E-1,3.455999494E-1
3.340522960E-1,6.464832425E-1,2.668085098E-1,2.383758128E-1
3.390316190E-1,6.667764783E-1,3.038787842E-1,6.180850416E-2
3.440108900E-1,6.496729851E-1,2.922706604E-1,-7.671929151E-2
3.489902130E-1,5.379686356E-1,3.211278915E-1,-3.021640480E-1
3.539096920E-1,4.855031371E-1,2.283773422E-1,-5.490118265E-1
3.588889630E-1,3.875947595E-1,1.750078201E-1,-6.841232181E-1
3.638682860E-1,4.076209068E-1,6.959342957E-2,-6.504677534E-1
3.688476090E-1,4.151309133E-1,-3.395080566E-3,-5.784137845E-1
3.738268800E-1,3.872210085E-1,-7.519340515E-2,-3.814105392E-1
3.788062030E-1,2.548693419E-1,-1.647348404E-1,-1.518879831E-1
3.837275050E-1,6.269973516E-2,-1.904211044E-1,5.774969608E-2
3.887067760E-1,-1.079121232E-1,-2.098674774E-1,1.923767924E-1
3.936860990E-1,-2.556229830E-1,-2.208414078E-1,1.961985826E-1
3.986654210E-1,-3.690939546E-1,-2.211008072E-1,1.412321925E-1
4.036446920E-1,-3.578476310E-1,-2.167062759E-1,1.132346019E-1
4.086240150E-1,-2.565786839E-1,-1.970949173E-1,7.628981024E-2
4.135444320E-1,-1.152246594E-1,-1.766242981E-1,4.695545137E-2
4.185237030E-1,-1.932770014E-2,-1.978330612E-1,2.847095579E-2
4.235030260E-1,1.492339373E-2,-2.057914734E-1,3.706233948E-2
4.284823490E-1,2.527761459E-2,-2.172393799E-1,1.346693039E-1
4.334616190E-1,-4.117870331E-2,-2.746858597E-1,2.431928813E-1
4.384409420E-1,-1.252939105E-1,-3.220043182E-1,2.564337254E-1
4.433580780E-1,-2.548170090E-1,-3.759193420E-1,2.416206896E-1
4.483373490E-1,-3.250845671E-1,-4.481973648E-1,1.898341179E-1
4.533166710E-1,-2.754148245E-1,-4.014081955E-1,1.834604144E-1
4.582959940E-1,-2.480957508E-1,-3.943395615E-1,1.246176884E-1
4.632752650E-1,-1.671959162E-1,-3.744421005E-1,1.052842885E-1
4.682545880E-1,-5.352240801E-2,-2.708492279E-1,1.108154133E-1
4.731747960E-1,9.220588207E-2,-2.087736130E-1,1.053382605E-1
4.781540670E-1,2.506351769E-1,-1.439065933E-1,6.293059886E-2
4.831333900E-1,3.562850356E-1,-7.742977142E-2,7.882950455E-2
4.881127130E-1,4.004418552E-1,-6.026935577E-2,-4.547089338E-4
4.930919840E-1,3.708049953E-1,-5.989074707E-2,2.967453003E-2
4.980713070E-1,3.464073837E-1,-3.939342499E-2,1.124143079E-1
5.029702650E-1,3.907659054E-1,-3.568935394E-2,1.772407591E-1
5.079495360E-1,4.500726461E-1,-4.387092590E-2,2.018448412E-1
5.129288590E-1,5.013915300E-1,-4.246997833E-2,1.832025647E-1
5.179081820E-1,3.469288647E-1,-7.898521423E-2,6.249672174E-2
5.228874530E-1,2.223929763E-1,-7.244682312E-2,3.631053120E-2
5.278667760E-1,2.446565032E-1,-8.847999573E-2,7.272921503E-2
5.328088070E-1,1.964703202E-1,-6.047534943E-2,5.852963030E-2
5.377880780E-1,1.697449684E-1,-2.918052673E-2,3.836478293E-2
5.427674010E-1,1.463168859E-1,3.018379211E-3,5.126626790E-2
5.477467240E-1,1.193233728E-1,3.135681152E-2,1.045944542E-2
5.527259940E-1,8.355641365E-2,3.337478638E-2,-1.577703655E-2
5.577053170E-1,8.659100533E-2,-6.089210510E-3,-1.259705722E-1
5.626234420E-1,-1.515424252E-2,-1.786708832E-2,-2.502170503E-1
5.676007340E-1,-8.412235975E-2,-6.036186218E-2,-2.236597985E-1
5.725780260E-1,-7.795846462E-2,-6.922340393E-2,-1.487757415E-1
5.775553690E-1,-3.201448917E-2,-6.729698181E-2,-5.799457431E-3
5.825327130E-1,-1.782381535E-2,-5.349731445E-2,1.594150364E-1
5.875099530E-1,9.069281816E-2,-4.201889038E-3,3.171725869E-1
5.924409420E-1,1.632532179E-1,5.654239655E-2,3.734505177E-1
5.974182340E-1,2.214103341E-1,6.099987030E-2,3.473055065E-1
6.023955260E-1,2.167147994E-1,5.952262878E-2,2.726175785E-1
6.073728690E-1,2.614409924E-1,4.740524292E-2,2.746406794E-1
6.123501610E-1,2.992328405E-1,8.766841888E-2,2.268135250E-1
6.173274530E-1,2.723987103E-1,5.873203278E-2,1.405474246E-1
6.222580780E-1,4.874527454E-2,3.716659546E-2,-5.358963832E-2
6.272353690E-1,-1.924316883E-1,-6.025123596E-2,-1.437078863E-1
6.322126610E-1,-2.824211717E-1,-9.632205963E-2,-1.162680462E-1
6.371900050E-1,-2.792619467E-1,-6.208515167E-2,-1.485736202E-2
6.421672960E-1,-2.658157945E-1,-5.431938171E-2,4.197940975E-2
6.471445880E-1,-2.374150753E-1,-4.310798645E-2,1.034274474E-1
6.520761510E-1,-1.600006819E-1,3.608703613E-3,1.316341460E-1
6.570534420E-1,-7.793915272E-2,-5.105590820E-2,1.302691698E-1
6.620307340E-1,-1.855653524E-2,-5.778980255E-2,2.833521552E-2
6.670080780E-1,-5.427461863E-2,-9.537410736E-2,-4.014521465E-2
6.719853690E-1,-1.211409569E-1,-1.101140976E-1,-8.757241070E-2
6.769626610E-1,-1.205708385E-1,-6.418037415E-2,-6.308747083E-2
6.818903170E-1,-9.570229053E-2,5.092620850E-3,4.223108292E-2
6.868676090E-1,-3.499221802E-2,6.307125092E-2,7.321975380E-2
6.918449010E-1,-3.034114838E-3,1.526184082E-1,9.361886978E-2
6.968222440E-1,7.283908129E-2,2.437801361E-1,8.329726756E-2
7.017995360E-1,1.373372674E-1,2.878608704E-1,3.796641901E-2
7.067768280E-1,1.769174933E-1,2.936048508E-1,-6.840177625E-2
7.117055260E-1,1.839678288E-1,2.719869614E-1,-1.352783740E-1
7.166828170E-1,2.059319615E-1,2.719564438E-1,-2.142208517E-1
7.216601090E-1,1.644506752E-1,2.137422562E-1,-1.888077408E-1
7.266374530E-1,1.179684401E-1,1.524839401E-1,-1.761961132E-1
7.316147440E-1,8.217585087E-2,8.819198608E-2,-8.746083826E-2
7.365920360E-1,1.493165493E-1,5.535697937E-2,3.982206807E-2
7.415222960E-1,1.782776415E-1,4.541492462E-2,1.622469723E-1
7.464995880E-1,2.643333077E-1,5.342483521E-2,3.070136309E-1
7.514768800E-1,3.309695125E-1,6.855106354E-2,3.432726264E-1
7.564542240E-1,3.318430185E-1,8.836936951E-2,3.479999304E-1
7.614315150E-1,3.676386774E-1,1.175651550E-1,2.563023269E-1
7.664088070E-1,2.278342247E-1,1.037969589E-1,8.789231628E-2
7.713379210E-1,7.238584757E-2,8.777713776E-2,2.053306624E-2
7.763152130E-1,-5.203914642E-2,1.039533615E-1,1.147627831E-3
7.812925050E-1,-2.082629204E-1,8.790016174E-2,1.819645241E-2
7.862698490E-1,-3.340765834E-1,6.600761414E-2,7.511214912E-2
7.912471400E-1,-4.544181228E-1,5.375194550E-2,1.701759994E-1
7.962244320E-1,-4.943507910E-1,1.660251617E-2,2.409650683E-1
8.011568800E-1,-5.151398778E-1,3.434753418E-2,3.449481726E-1
8.061341710E-1,-4.054724574E-1,7.921981812E-2,3.937893808E-1
8.111114630E-1,-3.020923734E-1,9.874439240E-2,3.727558255E-1
8.160888070E-1,-1.613870859E-1,1.406679153E-1,3.309851885E-1
8.210660990E-1,1.602244377E-2,1.347389221E-1,2.618734837E-1
8.260433900E-1,1.049089134E-1,1.063117981E-1,1.242642030E-1
8.309710990E-1,8.489328623E-2,6.862258911E-2,-1.835243031E-2
8.359483900E-1,2.432435751E-2,-1.149368286E-2,-8.729561418E-2
8.409256820E-1,-2.858585119E-2,-4.818344116E-2,-8.554060757E-2
8.459030260E-1,-2.406859398E-2,-6.437397003E-2,-5.989082530E-2
8.508803170E-1,3.948593140E-2,-4.596710205E-2,-2.489254624E-2
8.558576090E-1,9.863343835E-2,-7.876968384E-2,4.541438073E-2
8.607874010E-1,2.149828970E-1,-7.444953918E-2,6.192957610E-2
8.657646920E-1,3.082135916E-1,-6.418228149E-2,2.742053196E-2
8.707419840E-1,3.183732033E-1,-1.252489090E-1,-8.254651725E-2
8.757193280E-1,3.065486252E-1,-1.691503525E-1,-5.112322792E-2
8.806966190E-1,2.670355439E-1,-1.461467743E-1,-2.332731523E-2
8.856739110E-1,2.502102852E-1,-1.470813751E-1,3.418942541E-2
8.906047960E-1,2.000453472E-1,-1.491851807E-1,7.347529382E-2
8.955820880E-1,1.160467863E-1,-1.394081116E-1,4.010108113E-2
9.005593800E-1,-3.200823069E-2,-1.760702133E-1,3.206101060E-2
9.055367240E-1,-1.319608688E-1,-1.601934433E-1,1.697095484E-2
9.105140150E-1,-2.526088953E-1,-1.753902435E-1,9.144736454E-3
9.154913590E-1,-3.735349774E-1,-1.833915710E-1,-1.415933762E-2
9.204005260E-1,-4.671930671E-1,-2.199048996E-1,-2.408180386E-2
9.253778170E-1,-4.994255304E-1,-2.502450943E-1,-1.717574522E-2
9.303551090E-1,-4.922361970E-1,-1.901283264E-1,-4.116266593E-2
9.353324530E-1,-5.266171098E-1,-2.386732101E-1,-1.345155835E-1
9.403097440E-1,-5.442796946E-1,-2.643079758E-1,-1.938196868E-1
9.452870360E-1,-4.837035537E-1,-2.921628952E-1,-1.645904481E-1
9.502369320E-1,-2.948421240E-1,-1.927318573E-1,-7.381515950E-2
9.552142240E-1,-9.806847572E-2,-1.273899078E-1,6.638308614E-2
9.601915150E-1,1.157553792E-1,-7.920932770E-2,1.518625617E-1
9.651688590E-1,2.793996334E-1,-3.612995148E-2,2.034549415E-1
9.701461510E-1,3.980343342E-1,3.083229065E-3,2.162968814E-1
9.751234420E-1,4.419508576E-1,4.204750061E-2,2.098812610E-1
9.800528170E-1,4.346815050E-1,9.381198883E-2,1.566951275E-1
9.850301090E-1,3.422800899E-1,9.293842316E-2,9.414350986E-2
9.900074010E-1,1.443138123E-1,5.291461945E-2,-7.299720310E-3
9.949847440E-1,-4.484903812E-2,-4.593849182E-3,-8.193049580E-2
9.999620360E-1,-2.167074084E-1,-2.957153320E-2,-1.264315099E-1
1.004939328E0,-3.356689215E-1,-6.149291992E-2,-1.220482364E-1
1.009870474E0,-3.818203211E-1,-3.141880035E-2,-2.984156460E-2
1.014847817E0,-3.533794880E-1,2.093505859E-2,2.703440562E-2
1.019825057E0,-2.809941769E-1,5.264282227E-2,7.428856567E-3
1.024802401E0,-1.676402092E-1,1.149682999E-1,-1.055029333E-1
1.029779692E0,-6.101381779E-2,1.696338654E-1,-1.674220711E-1
1.034757036E0,8.882582188E-3,1.787214279E-1,-2.820345461E-1
1.039696255E0,6.216555834E-2,2.055883408E-1,-3.059552610E-1
1.044673546E0,1.028583050E-1,2.263107300E-1,-3.386629224E-1
1.049650838E0,1.439056396E-1,2.195720673E-1,-2.673306465E-1
1.054628182E0,1.425450444E-1,2.473659515E-1,-2.519225776E-1
1.059605474E0,9.342509508E-2,2.036790848E-1,-1.936479807E-1
1.064582765E0,5.028939247E-2,1.876993179E-1,-1.806498915E-1
1.069502817E0,-2.239048481E-2,1.350421906E-1,-2.089567184E-1
1.074478546E0,-1.442955136E-1,5.787467957E-2,-2.594139576E-1
1.079454276E0,-2.518295050E-1,-1.866817474E-2,-2.652625442E-1
1.084430005E0,-3.532962799E-1,-9.104156494E-2,-2.472381294E-1
1.089405734E0,-3.656029701E-1,-1.141433716E-1,-1.747952402E-1
1.094381463E0,-2.979642749E-1,-8.837127686E-2,-9.576691687E-2
1.099318859E0,-2.331487536E-1,-7.470417023E-2,-4.600821063E-2
1.104294588E0,-1.070978642E-1,-7.302856445E-2,-2.400246635E-2
1.109270317E0,-1.793992519E-2,-2.621936798E-2,4.976108670E-3
1.114246046E0,1.188845634E-1,1.903152466E-2,2.615690231E-3
1.119221776E0,2.444400191E-1,5.088424683E-2,1.926819980E-2
1.124197505E0,3.753692508E-1,8.370494843E-2,-3.064841777E-2
1.129135994E0,4.259580970E-1,6.879806519E-2,-9.084446728E-2
1.134111724E0,3.971502185E-1,6.118106842E-2,-1.065084934E-1
1.139087453E0,3.336669207E-1,3.940200806E-2,-1.456214041E-1
1.144063182E0,2.337329984E-1,-2.378463745E-3,-1.345800757E-1
1.149038911E0,1.193441749E-1,-3.438949585E-3,-1.058791354E-1
1.154014640E0,-5.058276653E-2,-8.647918701E-2,-1.559107602E-1
1.158951411E0,-2.882264256E-1,-1.736412048E-1,-1.654214412E-1
1.163927140E0,-5.021104217E-1,-2.316694260E-1,-6.729246676E-2
1.168902869E0,-6.069903374E-1,-2.726812363E-1,6.014784053E-2
1.173878599E0,-6.249265671E-1,-2.635755539E-1,2.309047729E-1
1.178854328E0,-6.460130811E-1,-2.332639694E-1,3.198606670E-1
1.183830057E0,-6.404800415E-1,-1.902437210E-1,3.538025022E-1
1.188768078E0,-5.292643309E-1,-1.156005859E-1,3.226026297E-1
1.193743807E0,-3.824226260E-1,-1.196193695E-2,2.424444407E-1
1.198719536E0,-2.327765822E-1,5.249023438E-3,1.126400828E-1
1.203695265E0,-1.434032321E-1,4.840755463E-2,-8.858419955E-3
1.208670994E0,-7.863467932E-2,7.457065582E-2,-8.884621412E-2
1.213646724E0,9.584426880E-4,8.863353729E-2,-1.740743667E-1
1.218597453E0,2.344435453E-2,6.698226929E-2,-1.847423166E-1
1.223573182E0,4.770046473E-2,6.928825378E-2,-1.489937603E-1
1.228548911E0,8.285301924E-2,9.301185608E-2,-1.371766180E-1
1.233524640E0,1.346977353E-1,1.094675064E-1,-1.298497617E-1
1.238500369E0,1.318274736E-1,1.139717102E-1,-1.614978909E-1
1.243476099E0,1.112623215E-1,7.813644409E-2,-2.139401734E-1
1.248395057E0,1.065366268E-1,8.068275452E-2,-2.427261770E-1
1.253370786E0,1.258599758E-1,9.396839142E-2,-2.791481614E-1
1.258346515E0,1.215730906E-1,6.207847595E-2,-2.873460948E-1
1.263322244E0,1.032988429E-1,3.884506226E-2,-2.925418913E-1
1.268297974E0,1.045923233E-1,4.793739319E-2,-2.048429251E-1
1.273273703E0,1.607676744E-1,2.614688873E-2,-1.175849959E-1
1.278236515E0,1.789794564E-1,2.359676361E-2,-2.148642391E-2
1.283212244E0,2.021700740E-1,3.063774109E-2,6.541772932E-2
1.288187974E0,2.255180478E-1,4.956436157E-2,1.504280865E-1
1.293163703E0,2.371451855E-1,8.859252930E-2,1.777560413E-1
1.298139432E0,2.351122499E-1,8.932590485E-2,6.707230955E-2
1.303115161E0,1.363441944E-1,8.653068542E-2,-6.494230777E-2
1.308031776E0,-1.907169819E-3,6.355285645E-2,-1.681042910E-1
1.313007505E0,-1.695114970E-1,-4.241180420E-2,-2.500157356E-1
1.317983234E0,-4.182308316E-1,-8.934688568E-2,-2.644851804E-1
1.322958963E0,-5.261034966E-1,-1.205310822E-1,-1.480056942E-1
1.327934692E0,-6.189750433E-1,-1.515407562E-1,-3.346658498E-2
1.332910421E0,-5.782474279E-1,-1.669330597E-1,6.847521663E-2
1.337848026E0,-5.395421386E-1,-1.715641022E-1,1.256217808E-1
1.342823755E0,-4.801306725E-1,-1.952266693E-1,1.357014924E-1
1.347799484E0,-3.757134676E-1,-1.391429901E-1,1.361027062E-1
1.352775213E0,-2.197217941E-1,-8.947944641E-2,1.232990324E-1
1.357750942E0,-8.865833282E-2,-2.123737335E-2,1.058725789E-1
1.362726671E0,5.300480127E-2,4.875183105E-3,7.935313880E-2
1.367663963E0,1.503446698E-1,4.980468750E-2,5.194780976E-2
1.372639692E0,1.659042239E-1,7.536697388E-2,1.091263443E-2
1.377615421E0,1.916546822E-1,7.817745209E-2,1.539112628E-2
1.382591151E0,1.766440868E-1,8.810138702E-2,2.599139512E-2
1.387566880E0,1.177300811E-1,8.013248444E-2,1.738390326E-2
1.392542609E0,3.351151943E-2,3.775405884E-2,1.484506577E-2
1.397481359E0,-7.671451569E-2,-4.232978821E-2,-1.868385077E-2
1.402457088E0,-2.208086252E-1,-9.687423706E-2,-4.002726078E-2
1.407432817E0,-3.434993625E-1,-1.023683548E-1,-4.826039076E-2
1.412408546E0,-4.387437701E-1,-1.554536819E-1,-4.951319098E-2
1.417384276E0,-4.749904871E-1,-1.844491959E-1,2.711653709E-3
1.422360005E0,-4.147000909E-1,-2.061901093E-1,3.778365254E-2
1.427298859E0,-3.207895756E-1,-1.577510834E-1,8.887414634E-2
1.432274588E0,-1.735546589E-1,-1.085939407E-1,9.527017176E-2
1.437250317E0,-5.563467741E-2,-6.463432312E-2,1.390867531E-1
1.442226046E0,3.649109602E-2,-2.224445343E-2,1.761466265E-1
1.447201776E0,1.110858917E-1,3.762054443E-2,2.218291759E-1
1.452177505E0,1.988365650E-1,1.112890244E-1,3.031176925E-1
1.457114432E0,2.494716644E-1,1.202707291E-1,3.015010953E-1
1.462090161E0,2.692676783E-1,1.541919708E-1,2.626976967E-1
1.467065890E0,3.152266741E-1,1.712942123E-1,1.622005105E-1
1.472041619E0,2.945172787E-1,1.812171936E-1,4.226043820E-3
1.477017349E0,2.539458275E-1,1.353292465E-1,-5.609165132E-2
1.481993078E0,1.866840124E-1,1.124706268E-1,-1.596115232E-1
1.486932974E0,8.714902401E-2,6.967735291E-2,-2.950237989E-1
1.491908703E0,-5.123800039E-2,2.334594727E-3,-3.611432612E-1
1.496884432E0,-1.449009180E-1,-5.016422272E-2,-3.192749918E-1
1.501860161E0,-1.752401590E-1,-5.230808258E-2,-2.725777030E-1
1.506835890E0,-1.649922132E-1,-7.938003540E-2,-1.557134390E-1
1.511811619E0,-1.266904473E-1,-5.868530273E-2,-7.042011619E-2
1.516747349E0,-2.378207445E-2,-5.118942261E-2,4.379354417E-2
1.521723078E0,8.738541603E-2,-3.777694702E-2,1.260284185E-1
1.526698807E0,1.187891364E-1,-1.862525940E-3,1.634459347E-1
1.531674536E0,1.520441771E-1,1.003074646E-2,2.025039196E-1
1.536650265E0,1.560165286E-1,5.246162415E-3,2.375032902E-1
1.541625994E0,1.777898073E-1,4.089164734E-2,2.231476307E-1
1.546563494E0,1.433222294E-1,3.469181061E-2,1.897969693E-1
1.551539224E0,7.135558128E-2,2.852058411E-2,1.033295095E-1
1.556514953E0,-4.592233896E-2,4.136657715E-2,2.816005051E-2
1.561490682E0,-7.618540525E-2,2.436065674E-2,-3.323706985E-2
1.566466411E0,-1.117476821E-1,7.450103760E-3,-1.221309900E-1
1.571442140E0,-1.392967105E-1,-9.384155273E-3,-1.908340454E-1
1.576378078E0,-1.151191592E-1,1.306819916E-2,-1.978934705E-1
1.581352505E0,-8.470839262E-2,-3.837013245E-2,-1.734075546E-1
1.586326984E0,-6.971013546E-2,-5.615901947E-2,-1.391763985E-1
1.591301463E0,2.111846209E-2,-5.598449707E-2,-5.395604670E-2
1.596275890E0,8.014869690E-2,-7.717704773E-2,1.282671094E-2
1.601250369E0,4.706859589E-2,-1.326255798E-1,4.942683876E-2
1.606195057E0,-2.599579096E-2,-1.460466385E-1,8.418540657E-2
1.611169536E0,-9.584045410E-2,-1.938171387E-1,1.229051948E-1
1.616143963E0,-2.131646276E-1,-2.186775208E-1,1.490663886E-1
1.621118442E0,-3.110353351E-1,-2.326974869E-1,2.337751240E-1
1.626092869E0,-4.261592031E-1,-2.110471725E-1,3.502284288E-1
1.631067349E0,-4.290144444E-1,-1.575813293E-1,4.898043871E-1
1.636014380E0,-3.575292826E-1,-1.200637817E-1,5.396032929E-1
1.640988859E0,-2.694458961E-1,-6.390380859E-2,4.754907489E-1
1.645963286E0,-1.615521908E-1,-2.369213104E-2,3.676074743E-1
1.650937765E0,-8.875012398E-2,-1.235485077E-2,1.880764663E-1
1.655912192E0,-2.249264717E-2,1.551055908E-2,5.516192317E-2
1.660886671E0,7.019996643E-2,4.435825348E-2,-8.955416083E-2
1.665826515E0,1.059186459E-1,6.349658966E-2,-1.710735559E-1
1.670800994E0,1.670014262E-1,7.657814026E-2,-1.874431670E-1
1.675775421E0,2.011314631E-1,6.938552856E-2,-1.429128945E-1
1.680749901E0,1.643064618E-1,7.656192780E-2,-1.293791682E-1
1.685724328E0,1.488280296E-1,8.133697510E-2,-1.264502853E-1
1.690698807E0,1.009448767E-1,8.136463165E-2,-5.439080298E-2
1.695644015E0,1.185799837E-1,9.566783905E-2,2.185423672E-2
1.700618494E0,7.262372971E-2,8.020782471E-2,2.488940954E-3
1.705592921E0,1.240634918E-2,4.829025269E-2,7.000530511E-2
1.710567401E0,2.844822407E-2,6.537151337E-2,7.244131714E-2
1.715541828E0,5.571126938E-2,6.455135345E-2,1.200255603E-1
1.720516307E0,5.511403084E-2,8.158588409E-2,9.125207365E-2
1.725460005E0,-5.210399628E-3,4.862976074E-2,2.243809402E-2
1.730434484E0,-6.849670410E-2,2.662849426E-2,-3.987360001E-2
1.735408911E0,-1.515393257E-1,4.282474518E-2,-8.968986571E-2
1.740383390E0,-1.967754364E-1,-1.597976685E-2,-1.161945015E-1
1.745357817E0,-2.211514711E-1,-3.514003754E-2,-1.195156276E-1
1.750332296E0,-2.247676849E-1,-6.673812866E-3,-8.468693495E-2
1.755278859E0,-2.221202850E-1,-8.177757263E-3,-2.385351062E-2
1.760253338E0,-1.683009863E-1,-4.934310913E-3,5.786462128E-2
1.765227765E0,-1.064373255E-1,3.032875061E-2,1.377852261E-1
1.770202244E0,-8.410429955E-2,4.865360260E-2,1.739192158E-1
1.775176671E0,-4.868388176E-2,9.768772125E-2,2.094370127E-1
1.780151151E0,-4.082334042E-2,1.213665009E-1,1.731721014E-1
1.785093286E0,-8.495068550E-2,1.079883575E-1,1.666154712E-1
1.790067765E0,-1.402398348E-1,1.267509460E-1,9.837950766E-2
1.795042192E0,-2.157424688E-1,1.286392212E-1,1.286821067E-2
1.800016671E0,-2.744979858E-1,1.078615189E-1,-1.376506686E-2
1.804991099E0,-2.763150930E-1,6.817245483E-2,2.398854494E-2
1.809965578E0,-1.717563868E-1,1.035566330E-1,4.022793472E-2
1.814907453E0,-1.140820980E-1,4.001426697E-2,3.073930740E-3
1.819881932E0,1.484215260E-2,3.276062012E-2,1.018816233E-2
1.824856359E0,1.188877821E-1,1.810073853E-3,-3.246730566E-2
1.829830838E0,2.325240374E-1,-3.717517853E-2,2.535253763E-3
1.834805265E0,2.926457524E-1,-7.699203491E-2,4.079625010E-3
1.839779744E0,3.139032125E-1,-1.093063354E-1,2.804328501E-2
1.844725005E0,3.167706728E-1,-1.175451279E-1,9.305645525E-2
1.849699484E0,3.290047646E-1,-1.138200760E-1,2.117993683E-1
1.854673911E0,3.088328242E-1,-1.314706802E-1,2.720099688E-1
1.859648390E0,2.603412271E-1,-7.533168793E-2,3.289366961E-1
1.864622817E0,1.860901117E-1,-4.578304291E-2,3.314267397E-1
1.869597296E0,1.446270943E-1,-8.179664612E-3,2.517439127E-1
1.874541151E0,9.778130054E-2,1.601314545E-2,1.358998865E-1
1.879515630E0,9.669923782E-2,1.145935059E-2,4.634894431E-2
1.884490057E0,8.152067661E-2,5.085754395E-2,-8.945900202E-2
1.889464536E0,4.531919956E-2,-5.138397217E-3,-2.080073059E-1
1.894438963E0,4.977893829E-2,-1.791667938E-2,-2.170116752E-1
1.899413442E0,8.144688606E-2,-6.265735626E-2,-1.685348600E-1
1.904357140E0,1.304702759E-1,-7.968997955E-2,-6.432101130E-2
1.909331619E0,2.012302876E-1,-5.376911163E-2,3.546972573E-2
1.914306046E0,2.232972383E-1,-9.925270081E-2,9.994141757E-2
1.919280526E0,2.421592474E-1,-3.975009918E-2,1.696604192E-1
1.924254953E0,2.757360935E-1,-4.419326782E-3,2.385475636E-1
1.929229432E0,2.749475241E-1,-2.530097961E-3,2.343211770E-1
1.934174692E0,2.108844519E-1,1.839351654E-2,2.097695917E-1
1.939149171E0,1.067385674E-1,8.293151855E-3,1.413527131E-1
1.944123599E0,-2.266514301E-2,-8.849143982E-3,9.599599242E-2
1.949098078E0,-1.199195385E-1,-3.306388855E-3,5.919674039E-2
1.954072505E0,-1.411454678E-1,-4.181289673E-2,5.359823257E-2
1.959046984E0,-1.844263077E-1,-5.391883850E-2,3.644941002E-2
1.963991255E0,-1.558021307E-1,-7.546710968E-2,-6.490692496E-3
1.968965734E0,-9.609675407E-2,-1.064081192E-1,6.058633327E-3
1.973940161E0,3.210306168E-2,-1.074151993E-1,-1.940585673E-2
1.978914640E0,1.364330053E-1,-7.988452911E-2,-6.082962453E-2
1.983889067E0,2.315274477E-1,-9.652996063E-2,-8.845858276E-2
1.988863546E0,2.770512104E-1,-9.878158569E-2,-1.545928270E-1
1.993806359E0,3.196105957E-1,-7.842636108E-2,-1.899883151E-1
1.998780838E0,3.583875895E-1,-5.826854706E-2,-1.997780800E-1
2.003755265E0,2.401734591E-1,-1.036281586E-1,-2.388010472E-1
2.008729744E0,1.728649139E-1,-1.343669891E-1,-1.300588548E-1
2.013704171E0,1.088585854E-1,-1.280813217E-1,-9.319141507E-3
2.018678651E0,3.993439674E-2,-1.112260818E-1,1.114244461E-1
2.023648026E0,1.348137856E-2,-1.230669022E-1,1.431488246E-1
2.028622505E0,3.199458122E-3,-7.667922974E-2,1.755737364E-1
2.033596932E0,2.420914173E-2,-1.647853851E-2,1.317296773E-1
2.038571411E0,5.564057827E-2,2.659988403E-2,7.291053981E-2
2.043545838E0,8.351659775E-2,3.481864929E-2,-7.630696893E-2
2.048520317E0,9.687793255E-2,4.058361053E-2,-2.202405632E-1
2.053438599E0,1.206364632E-1,5.343532562E-2,-3.113714159E-1
2.058413078E0,1.619135141E-1,2.579307556E-2,-3.500468135E-1
2.063387505E0,1.881562471E-1,1.861572266E-2,-3.307496309E-1
2.068361984E0,2.042872906E-1,-7.466316223E-3,-2.909708619E-1
2.073336411E0,2.420731783E-1,-3.916740417E-2,-1.444578767E-1
2.078310890E0,2.480323315E-1,-9.783744812E-2,-6.794735789E-2
2.083260317E0,2.960034609E-1,-1.000928879E-1,1.194318086E-1
2.088233755E0,3.023747206E-1,-8.082103729E-2,1.752919108E-1
2.093207192E0,2.698569298E-1,-8.533096313E-2,2.076069713E-1
2.098180630E0,2.004034519E-1,-7.785511017E-2,1.938613653E-1
2.103154119E0,1.146664619E-1,-4.070091248E-2,1.499468237E-1
2.108127557E0,8.236527443E-3,-4.541301727E-2,1.261299998E-1
2.113077140E0,-5.322146416E-2,-1.921272278E-2,1.126734465E-1
2.118050578E0,-1.068058014E-1,-3.946304321E-3,1.227100492E-1
2.123024015E0,-1.228761673E-1,5.223274231E-3,1.109843999E-1
2.127997453E0,-8.614671230E-2,2.020835876E-2,6.206724048E-2
2.132970942E0,-8.259356022E-2,4.689502716E-2,-2.122902870E-2
2.137944380E0,-5.855917931E-2,2.343559265E-2,-5.314850807E-2
2.142889015E0,-4.598796368E-2,3.808975220E-2,-1.194882393E-1
2.147862453E0,-3.190279007E-2,1.456069946E-2,-1.263211071E-1
2.152835890E0,-1.003323793E-1,-2.787590027E-2,-1.075728834E-1
2.157809328E0,-1.330322027E-1,-5.817794800E-2,-6.353944540E-3
2.162782817E0,-6.403946877E-2,-5.740070343E-2,1.229924262E-1
2.167756255E0,3.196907043E-2,-4.953193665E-2,2.802239060E-1
2.172704171E0,7.983136177E-2,-8.476257324E-3,3.663135767E-1
2.177677609E0,1.285855770E-1,1.680088043E-2,3.781651855E-1
2.182651046E0,1.664127111E-1,4.541301727E-2,3.417375088E-1
2.187624484E0,1.990045309E-1,6.431388855E-2,2.505154908E-1
2.192597974E0,2.370356321E-1,4.626655579E-2,1.576094180E-1
2.197571411E0,2.376086712E-1,4.503440857E-2,1.589272916E-2
2.202522140E0,2.602809668E-1,3.199577332E-2,-8.752825856E-2
2.207495578E0,2.598195076E-1,2.149200439E-2,-1.636977494E-1
2.212469015E0,2.150179148E-1,1.944541931E-2,-2.187618166E-1
2.217442453E0,2.307654619E-1,2.460193634E-2,-1.723874360E-1
2.222415942E0,3.006401062E-1,1.907825470E-2,-9.411999583E-2
2.227389380E0,3.516292572E-1,7.738113403E-3,2.270179987E-2
2.232339484E0,4.135423899E-1,-2.240180969E-3,1.813326180E-1
2.237312921E0,4.327726364E-1,2.223014832E-3,2.607730925E-1
2.242286359E0,3.945064545E-1,-6.337356567E-2,3.023361564E-1
2.247259796E0,2.900102139E-1,-7.495784760E-2,3.485767245E-1
2.252233286E0,2.128398418E-1,-8.173465729E-2,4.397966564E-1
2.257206724E0,1.557068825E-1,-5.169391632E-2,5.117636323E-1
2.262156099E0,1.351881027E-1,-4.573631287E-2,4.683807790E-1
2.267129536E0,1.852083206E-2,-5.544662476E-2,3.608449399E-1
2.272102974E0,-5.216634274E-2,-3.675079346E-2,2.113377452E-1
2.277076411E0,-8.531796932E-2,-2.912425995E-2,1.000442281E-1
2.282049901E0,2.030253410E-2,2.819252014E-2,1.758129895E-2
2.287023338E0,1.673240662E-1,8.133029938E-2,-5.721407384E-2
2.291980526E0,3.248594999E-1,9.364128113E-2,-2.000383437E-1
2.296953963E0,4.833726883E-1,1.236610413E-1,-3.424001932E-1
2.301927401E0,6.278586984E-1,1.357307434E-1,-5.576126575E-1
2.306900838E0,6.717073917E-1,4.091739655E-2,-7.639387846E-1
2.311874328E0,6.821236610E-1,1.355171204E-2,-9.271738529E-1
2.316847765E0,7.128124833E-1,-3.244495392E-2,-8.793096542E-1
2.321809953E0,6.754957438E-1,-3.631401062E-2,-7.646147013E-1
2.326783390E0,6.586430073E-1,-8.392906189E-2,-5.885326266E-1
2.331756828E0,5.959714651E-1,-1.274795532E-1,-3.865832090E-1
2.336730265E0,5.482597351E-1,-1.242074966E-1,-2.222758085E-1
2.341703755E0,4.173951149E-1,-1.375455856E-1,-9.214696288E-2
2.346677192E0,2.767519951E-1,-1.697607040E-1,4.639671743E-2
2.351603442E0,1.835278273E-1,-1.933917999E-1,1.445601285E-1
2.356576880E0,9.642910957E-2,-1.527919769E-1,1.694310457E-1
2.361550317E0,6.968379021E-3,-1.731939316E-1,1.632571220E-1
2.366523755E0,-7.392978668E-2,-1.282110214E-1,1.282168627E-1
2.371497244E0,-9.123790264E-2,-1.087331772E-1,8.965630829E-2
2.376470682E0,-1.027071476E-1,-1.109504700E-1,1.020485014E-1
2.381430421E0,-4.061925411E-2,-2.898406982E-2,7.604926825E-2
2.386403859E0,6.695544720E-2,2.265930176E-3,6.916132569E-2
2.391377296E0,1.149743795E-1,-7.248878479E-3,2.636992931E-2
2.396350734E0,1.336765289E-1,3.188705444E-2,3.345559537E-2
2.401324224E0,2.369890213E-1,3.617286682E-2,4.268893600E-2
2.406297661E0,3.431290388E-1,6.296443939E-2,7.901725173E-2
2.411234640E0,4.079006910E-1,6.342506409E-2,9.070417285E-2
2.416208078E0,3.580389023E-1,6.390380859E-2,9.340599179E-2
2.421181515E0,2.503969669E-1,4.300975800E-2,7.883733511E-2
2.426154953E0,2.078442574E-1,6.743907928E-2,5.992555618E-2
2.431128442E0,1.538075209E-1,4.890918732E-2,3.822028637E-2
2.436101880E0,1.390886307E-2,5.661582947E-2,5.246341228E-3
2.441050682E0,-8.063673973E-2,4.642200470E-2,1.331275702E-2
2.446024119E0,-1.311223507E-1,6.000041962E-2,-1.514509320E-2
2.450997557E0,-2.330220938E-1,6.390476227E-2,-4.286098480E-2
2.455970994E0,-2.314741611E-1,8.078098297E-2,-1.645597816E-2
2.460944484E0,-1.690407991E-1,1.022253036E-1,-2.546441555E-2
2.465917921E0,-4.189503193E-2,1.520261765E-1,-5.763188004E-2
2.470851932E0,1.277099848E-1,2.074413300E-1,9.149312973E-6
2.475825369E0,3.922802210E-1,2.792139053E-1,4.828768969E-2
2.480798807E0,6.614558697E-1,3.126573563E-1,9.563153982E-2
2.485772244E0,8.693307638E-1,3.580732346E-1,7.206907868E-2
2.490745734E0,1.073121548E0,3.679008484E-1,8.881512284E-2
2.495719171E0,1.184827089E0,4.137229919E-1,-2.946525812E-3
2.500685526E0,1.117716789E0,3.490686417E-1,-1.832049489E-1
2.505658963E0,9.130631685E-1,2.400865555E-1,-3.266994953E-1
2.510632401E0,6.485555172E-1,1.345605850E-1,-3.814250529E-1
2.515605838E0,3.634320498E-1,4.540443420E-2,-3.196094632E-1
2.520579328E0,7.854986191E-2,-1.335525513E-2,-1.932004988E-1
2.525552765E0,-1.033536196E-1,-5.869674683E-2,-5.738899112E-2
2.530500838E0,-1.948455572E-1,-8.957386017E-2,6.519660354E-2
2.535474276E0,-1.479694843E-1,-7.165908813E-2,1.650700420E-1
2.540447713E0,-5.211043358E-2,-3.382205963E-2,1.965110004E-1
2.545421151E0,8.436906338E-2,2.015686035E-2,1.444142312E-1
2.550394640E0,2.000540495E-1,5.221176147E-2,7.256825268E-2
2.555368078E0,2.714574337E-1,3.281021118E-2,-2.935633063E-2
2.560317088E0,3.083431721E-1,-1.384067535E-2,-1.076903045E-1
2.565290526E0,3.715610504E-1,1.564025879E-3,-1.482765079E-1
2.570263963E0,4.407156706E-1,-1.056957245E-2,-4.941451550E-2
2.575237401E0,4.633704424E-1,9.392738342E-3,-3.904905915E-2
2.580210890E0,4.780254364E-1,2.316284180E-2,-6.146535277E-3
2.585184328E0,5.463987589E-1,5.693912506E-2,4.081100225E-3
2.590134640E0,7.340507507E-1,1.177577972E-1,1.121627986E-1
2.595107244E0,9.647786617E-1,2.054567337E-1,1.391156465E-1
2.600079901E0,1.257771969E0,2.367601395E-1,2.003339082E-1
2.605052505E0,1.518106937E0,2.692461014E-1,1.386350840E-1
2.610025161E0,1.770691395E0,2.530651093E-1,1.606419683E-1
2.614997765E0,1.898859143E0,2.254877090E-1,1.124264449E-1
2.619949849E0,1.947448969E0,1.486196518E-1,1.416099370E-1
2.624922453E0,2.016779423E0,-5.599021912E-3,4.266189337E-1
2.629895109E0,1.946306586E0,-4.907608032E-3,3.899780512E-1
2.634867713E0,1.857620001E0,5.588531494E-3,3.766943216E-1
2.639840369E0,1.740495682E0,3.762340546E-2,3.698642850E-1
2.644812974E0,1.672571659E0,-8.800506592E-3,3.851363957E-1
2.649769484E0,1.570719838E0,-3.570556641E-2,3.604452610E-1
2.654742088E0,1.486394048E0,-5.634117126E-2,3.625566363E-1
2.659714744E0,1.394906998E0,-8.983230591E-2,3.404608369E-1
2.664687349E0,1.300108790E0,-1.467943192E-1,2.811298668E-1
2.669660005E0,1.217517018E0,-1.783475876E-1,2.718927562E-1
2.674632609E0,1.129546523E0,-2.381982803E-1,2.612047195E-1
2.679582192E0,1.051737666E0,-2.405958176E-1,2.074981332E-1
2.684554796E0,1.025649190E0,-2.632398605E-1,1.530839652E-1
2.689527453E0,9.120639563E-1,-2.537164688E-1,1.583068669E-1
2.694500057E0,8.544701338E-1,-2.075700760E-1,1.351695508E-1
2.699472713E0,8.452265263E-1,-1.904191971E-1,1.016329601E-1
2.704445317E0,7.926017046E-1,-1.569013596E-1,9.225431085E-2
2.709399484E0,7.623085976E-1,-1.166524887E-1,6.537649035E-2
2.714372088E0,7.467296720E-1,-1.112689972E-1,4.865370691E-2
2.719344744E0,7.270212173E-1,-5.140113831E-2,2.893354744E-2
2.724317349E0,6.948217750E-1,-6.458091736E-2,2.747784555E-2
2.729290005E0,6.857445240E-1,-4.566669464E-2,2.305702865E-2
2.734262609E0,6.604760885E-1,-8.519363403E-2,3.329478204E-2
2.739213911E0,6.157158613E-1,-1.007270813E-1,2.342508733E-2
2.744186515E0,5.743241906E-1,-1.281089783E-1,2.951861918E-2
2.749159171E0,4.947755337E-1,-1.458644867E-1,2.762818336E-2
2.754131776E0,4.748645723E-1,-1.457538605E-1,4.856507480E-2
2.759104432E0,4.134431481E-1,-1.564540863E-1,4.951241612E-2
2.764077036E0,3.498470783E-1,-1.647863388E-1,4.698807001E-2
2.769029796E0,3.332321048E-1,-1.624870300E-1,4.963432997E-2
2.774002401E0,2.648302913E-1,-1.793403625E-1,5.458509922E-2
2.778975057E0,2.102981508E-1,-1.890449524E-1,6.199155748E-2
2.783947661E0,2.135980129E-1,-2.082986832E-1,9.346928447E-2
2.788920317E0,1.782931685E-1,-2.370233536E-1,9.484927356E-2
2.793892921E0,1.708362699E-1,-2.846193314E-1,7.982526720E-2
2.798862609E0,1.804390252E-1,-3.046131134E-1,8.642707765E-2
2.803835213E0,1.938886344E-1,-3.399868011E-1,1.073110551E-1
2.808807869E0,2.248938680E-1,-3.252544403E-1,1.031270027E-1
2.813780474E0,2.879208922E-1,-3.202419281E-1,1.240896434E-1
2.818753130E0,3.085489571E-1,-2.785091400E-1,1.150745451E-1
2.823725734E0,3.795675039E-1,-2.146053314E-1,1.181519553E-1
2.828662765E0,4.301490188E-1,-1.583833694E-1,1.187991574E-1
2.833635369E0,5.103642941E-1,-1.204700470E-1,1.313061416E-1
2.838608026E0,5.543322563E-1,-9.475231171E-2,1.245907545E-1
2.843580630E0,6.544619799E-1,-3.952121735E-2,1.511058956E-1
2.848553286E0,7.056518793E-1,1.647853851E-2,1.382279396E-1
2.853525890E0,7.968039513E-1,5.902767181E-2,1.454874277E-1
2.858480161E0,8.348852396E-1,7.636356354E-2,1.596387327E-1
2.863452765E0,8.912922740E-1,9.009456635E-2,2.091588080E-1
2.868425421E0,9.393283725E-1,9.671115875E-2,1.842971444E-1
2.873398026E0,9.387805462E-1,1.390209198E-1,1.913699508E-1
2.878370682E0,9.858779311E-1,1.894283295E-1,2.204677165E-1
2.883343286E0,9.744333625E-1,1.730279922E-1,2.394240946E-1
2.888296828E0,9.749839902E-1,2.293415070E-1,2.647771239E-1
2.893269432E0,9.732367992E-1,2.235240936E-1,2.585525513E-1
2.898242088E0,9.169415832E-1,2.665433884E-1,2.708466053E-1
2.903214692E0,8.720151186E-1,2.772016525E-1,2.490451485E-1
2.908187349E0,8.206974864E-1,2.949438095E-1,2.257507443E-1
2.913159953E0,7.396257520E-1,2.638540268E-1,2.684653699E-1
2.918111515E0,6.777727604E-1,2.342100143E-1,2.509133220E-1
2.923084119E0,6.288547516E-1,2.143077850E-1,2.223575711E-1
2.928056776E0,5.244425535E-1,1.410770416E-1,2.385841757E-1
2.933029380E0,4.622378945E-1,1.159162521E-1,2.008471489E-1
2.938002036E0,4.306057692E-1,8.256721497E-2,1.784834117E-1
2.942974640E0,3.305747807E-1,8.267116547E-2,1.393305957E-1
2.947928442E0,2.569282949E-1,3.397274017E-2,1.334642470E-1
2.952901046E0,1.843132228E-1,-1.085948944E-2,1.060710549E-1
2.957873703E0,1.238895729E-1,-5.424499512E-2,7.985468954E-2
2.962846307E0,7.065016031E-2,-1.033239365E-1,5.020712316E-2
2.967818963E0,3.566425294E-3,-1.117305756E-1,1.734025776E-2
2.972791567E0,-5.346382782E-2,-1.332511902E-1,-3.294606507E-2
2.977744901E0,-1.372687817E-1,-1.487712860E-1,-5.275947601E-2
2.982717505E0,-1.503829807E-1,-1.915941238E-1,-5.425957590E-2
2.987690161E0,-2.131288350E-1,-2.460517883E-1,-6.850346923E-2
2.992662765E0,-2.657046318E-1,-2.847213745E-1,-1.130715236E-1
2.997635421E0,-3.056913018E-1,-2.982273102E-1,-1.176307574E-1
3.002608026E0,-3.428242505E-1,-3.069705963E-1,-1.180958748E-1
3.007561828E0,-3.507449031E-1,-3.204822540E-1,-1.393992901E-1
3.012534432E0,-4.117927551E-1,-3.280334473E-1,-1.601242423E-1
3.017507088E0,-4.588096440E-1,-3.356008530E-1,-1.551367193E-1
3.022479692E0,-5.120524168E-1,-3.408021927E-1,-1.140557975E-1
3.027452349E0,-5.736892223E-1,-3.626518250E-1,-1.252877712E-1
3.032424953E0,-6.317711473E-1,-3.736820221E-1,-1.073992550E-1
3.037376671E0,-6.775828600E-1,-3.929681778E-1,-1.035584584E-1
3.042349276E0,-7.718349695E-1,-4.144926071E-1,-1.018732488E-1
3.047321932E0,-8.093767166E-1,-4.524707794E-1,-8.211910725E-2
3.052294536E0,-8.618681431E-1,-4.485521317E-1,-8.708146214E-2
3.057267192E0,-8.969590068E-1,-4.672098160E-1,-9.558834881E-2
3.062239796E0,-9.408976436E-1,-4.642972946E-1,-5.971739441E-2
3.067196932E0,-9.517685175E-1,-5.005483627E-1,-7.754101604E-2
3.072169536E0,-9.882237315E-1,-4.960565567E-1,-5.813337117E-2
3.077142192E0,-1.012003064E0,-5.022277832E-1,-7.327017188E-2
3.082114796E0,-1.007822275E0,-5.486631393E-1,-6.081225350E-2
3.087087453E0,-9.900897741E-1,-4.722938538E-1,-4.613968357E-2
3.092060057E0,-9.603376389E-1,-4.772605896E-1,-4.675494134E-2
3.097008755E0,-9.389374256E-1,-4.298582077E-1,-3.567861766E-2
3.101980734E0,-9.224059582E-1,-3.911027908E-1,-2.214888856E-2
3.106952713E0,-8.492783308E-1,-4.155769348E-1,-3.964280710E-2
3.111924640E0,-8.008990288E-1,-3.863582611E-1,-2.010273561E-2
3.116896619E0,-7.607189417E-1,-3.739833832E-1,-3.024983034E-2
3.121868599E0,-6.802564859E-1,-3.759536743E-1,-1.906098425E-2
3.126827817E0,-6.275863647E-1,-3.315753937E-1,7.409999147E-3
3.131799796E0,-5.732843280E-1,-3.113403320E-1,9.778235108E-3
3.136771776E0,-4.984481633E-1,-2.948570251E-1,-2.086874098E-3
3.141743755E0,-4.155696630E-1,-2.536134720E-1,1.701685786E-2
3.146715682E0,-4.149859548E-1,-1.937589645E-1,4.053827375E-2
3.151687661E0,-3.468483984E-1,-1.582355499E-1,1.955965906E-2
3.156642192E0,-3.292170465E-1,-1.100158691E-1,3.794737160E-2
3.161614171E0,-2.859163880E-1,-1.062393188E-1,6.525547802E-2
3.166586151E0,-2.862986922E-1,-6.103706360E-2,3.637965769E-2
3.171558078E0,-2.976680100E-1,-2.700424194E-2,4.902417213E-2
3.176530057E0,-2.880982161E-1,-3.138828278E-2,5.066940933E-2
3.181502036E0,-3.228823543E-1,-5.367374420E-2,4.370590672E-2
3.186479432E0,-3.542144299E-1,-6.640815735E-2,6.963559240E-2
3.191451411E0,-3.951706588E-1,-1.160001755E-1,8.066590130E-2
3.196423390E0,-4.464913607E-1,-1.546163559E-1,5.928490311E-2
3.201395317E0,-4.808234572E-1,-1.799812317E-1,6.271795928E-2
3.206367296E0,-5.397246480E-1,-1.684494019E-1,6.697266549E-2
3.211339276E0,-5.954634547E-1,-1.820831299E-1,2.456757426E-2
3.216276567E0,-6.274203062E-1,-1.743211746E-1,2.505341172E-2
3.221248546E0,-7.005010843E-1,-2.142763138E-1,-1.977562904E-3
3.226220526E0,-7.592459321E-1,-2.041234970E-1,-1.581483334E-2
3.231192453E0,-7.918184996E-1,-2.072267532E-1,-1.893107593E-2
3.236164432E0,-8.575904369E-1,-2.175168991E-1,-5.167977139E-2
3.241136411E0,-9.323995113E-1,-2.373008728E-1,-6.985586882E-2
3.246068859E0,-9.578367472E-1,-2.379779816E-1,-8.893403411E-2
3.251040838E0,-1.018882394E0,-2.506084442E-1,-1.181893796E-1
3.256012817E0,-1.018872857E0,-2.560729980E-1,-1.480017900E-1
3.260984744E0,-1.085197687E0,-2.330312729E-1,-1.357701421E-1
3.265956724E0,-1.106604457E0,-2.292041779E-1,-1.602142751E-1
3.270928703E0,-1.161993980E0,-2.064304352E-1,-1.777500808E-1
3.275919015E0,-1.190580964E0,-2.183237076E-1,-1.698654145E-1
3.280890994E0,-1.212516785E0,-2.016105652E-1,-1.899277270E-1
3.285862974E0,-1.248023868E0,-2.040376663E-1,-1.952051520E-1
3.290834901E0,-1.294431806E0,-1.874084473E-1,-2.044745386E-1
3.295806880E0,-1.309175014E0,-1.732902527E-1,-1.881947368E-1
3.300778859E0,-1.340902567E0,-1.295547485E-1,-1.573764086E-1
3.305724796E0,-1.378648639E0,-1.550188065E-1,-1.598806679E-1
3.310696776E0,-1.416532159E0,-1.386451721E-1,-1.535005271E-1
3.315668755E0,-1.455454707E0,-1.377601624E-1,-1.455498040E-1
3.320640682E0,-1.479989886E0,-1.391696930E-1,-1.351746172E-1
3.325612661E0,-1.505491734E0,-1.748924255E-1,-1.090397537E-1
3.330584640E0,-1.584111094E0,-1.876153946E-1,-8.654328436E-2
3.335543442E0,-1.600091338E0,-1.751356125E-1,-7.133235037E-2
3.340515421E0,-1.601382375E0,-2.362327576E-1,-6.187789887E-2
3.345487401E0,-1.642746210E0,-2.135076523E-1,-5.014049262E-2
3.350459328E0,-1.638226748E0,-2.620534897E-1,-4.433104023E-2
3.355431307E0,-1.651183724E0,-2.506198883E-1,-2.552676946E-2
3.360403338E0,-1.651701331E0,-2.390871048E-1,-1.188135892E-2
3.365358859E0,-1.644733787E0,-2.417201996E-1,-2.333074249E-2
3.370330838E0,-1.623277426E0,-2.108974457E-1,-5.148839206E-3
3.375302817E0,-1.598060608E0,-1.730175018E-1,-2.641789615E-3
3.380274744E0,-1.553828835E0,-1.269750595E-1,2.682041004E-2
3.385246724E0,-1.487542033E0,-9.544563293E-2,1.684109122E-2
3.390218703E0,-1.452938080E0,-4.150390625E-2,2.694060281E-2
3.395198911E0,-1.403433800E0,-2.591133118E-2,2.257202193E-2
3.400170890E0,-1.352627754E0,-3.652095795E-2,3.000023961E-2
3.405142869E0,-1.301773787E0,-6.666183472E-4,3.479318693E-2
3.410114796E0,-1.228487968E0,2.423000336E-2,2.751431614E-2
3.415086776E0,-1.166578889E0,1.327991486E-2,2.388826013E-2
3.420058807E0,-1.102911830E0,4.873180389E-2,4.029513523E-2
3.425003182E0,-1.077082515E0,5.532932281E-2,2.441952378E-2
3.429975161E0,-9.949023724E-1,1.105260849E-1,3.230036050E-2
3.434947140E0,-9.626760483E-1,1.378831863E-1,3.285915032E-2
3.439919067E0,-9.101691842E-1,1.364192963E-1,3.323857859E-2
3.444891046E0,-9.041175246E-1,1.562557220E-1,4.425397515E-2
3.449863026E0,-8.790146112E-1,1.888809204E-1,2.182158083E-2
3.454819744E0,-8.537706137E-1,1.997661591E-1,2.884808183E-2
3.459791724E0,-8.511985540E-1,2.199516296E-1,4.541084915E-2
3.464763703E0,-8.520344496E-1,1.971025467E-1,6.387589872E-2
3.469735630E0,-8.610012531E-1,2.040300369E-1,4.878834635E-2
3.474707609E0,-8.862925172E-1,1.620988846E-1,7.038187981E-2
3.479679588E0,-8.874664903E-1,1.204042435E-1,4.896925762E-2
3.484647869E0,-9.498976469E-1,8.135509491E-2,6.906859577E-2
3.489619849E0,-9.566650987E-1,5.324268341E-2,3.895642236E-2
3.494591828E0,-9.864351749E-1,4.906082153E-2,3.380661830E-2
3.499563755E0,-1.011697292E0,1.872444153E-2,2.506873757E-2
3.504535734E0,-1.047853112E0,3.253459930E-2,1.030175388E-2
3.509507713E0,-1.061293840E0,2.482604980E-2,2.765422314E-2
3.514440942E0,-1.110378027E0,2.666378021E-2,1.405899599E-2
3.519412921E0,-1.120145798E0,9.444236755E-3,-6.482575089E-3
3.524384901E0,-1.154721141E0,-7.635116577E-3,-2.458046004E-2
3.529356828E0,-1.188877225E0,3.942489624E-3,-1.154799387E-2
3.534328807E0,-1.203561306E0,-1.069355011E-2,-2.921336517E-2
3.539300786E0,-1.228603005E0,-8.559226990E-3,-3.828898817E-2
3.544254953E0,-1.270865917E0,-2.422142029E-2,-5.664053559E-2
3.549226932E0,-1.281551242E0,-5.872154236E-2,-7.927980274E-2
3.554198911E0,-1.291756749E0,-5.725669861E-2,-6.221831590E-2
3.559170838E0,-1.305023193E0,-6.763458252E-2,-8.996956050E-2
3.564142817E0,-1.296356201E0,-3.155517578E-2,-9.225492179E-2
3.569114796E0,-1.354838610E0,-4.321575165E-2,-8.345416188E-2
3.574071567E0,-1.331356883E0,-3.331756592E-2,-8.746299148E-2
3.579043546E0,-1.355014682E0,-2.581405640E-2,-9.710986912E-2
3.584015526E0,-1.393162251E0,-3.610038757E-2,-7.424017787E-2
3.588987453E0,-1.368448019E0,-1.770591736E-2,-7.854004949E-2
3.593959432E0,-1.413159609E0,-4.806423187E-2,-9.462702274E-2
3.598931411E0,-1.406703949E0,-5.906200409E-2,-6.630545855E-2
3.603886724E0,-1.431211710E0,-5.202102661E-2,-3.091944009E-2
3.608858182E0,-1.461569786E0,-6.511020660E-2,-2.888893150E-2
3.613829640E0,-1.457173109E0,-6.845092773E-2,5.243860185E-3
3.618801099E0,-1.470443726E0,-3.716945648E-2,1.177082397E-2
3.623772557E0,-1.457390308E0,-5.708694458E-2,2.062513679E-2
3.628744015E0,-1.470287561E0,-5.174064636E-2,2.925533243E-2
3.633706619E0,-1.441324234E0,-6.411838531E-2,4.963354766E-2
3.638678078E0,-1.419590592E0,-5.606937408E-2,5.066795647E-2
3.643649536E0,-1.405933857E0,-7.525253296E-2,7.629702240E-2
3.648620994E0,-1.387402654E0,-8.583259583E-2,7.522598654E-2
3.653592453E0,-1.373720169E0,-1.033458710E-1,9.882980585E-2
3.658563911E0,-1.292443752E0,-9.211158752E-2,8.873870224E-2
3.663520630E0,-1.271206975E0,-1.022577286E-1,9.273226559E-2
3.668492088E0,-1.220700741E0,-7.187557220E-2,9.990681708E-2
3.673463546E0,-1.183959961E0,-6.901168823E-2,9.017562121E-2
3.678435005E0,-1.127637863E0,-2.692890167E-2,9.792312980E-2
3.683406463E0,-1.047509670E0,-1.812934875E-3,9.229338914E-2
3.688377921E0,-9.924209118E-1,5.290985107E-3,1.043906361E-1
3.693322244E0,-9.636118412E-1,4.472732544E-4,1.055166572E-1
3.698293703E0,-8.789286613E-1,-4.368782043E-3,9.438864887E-2
3.703265161E0,-8.457900286E-1,-3.410243988E-2,7.360780984E-2
3.708236619E0,-7.713535428E-1,-2.205181122E-2,7.293758541E-2
3.713208078E0,-7.216535807E-1,-2.441406250E-2,7.453810424E-2
3.718179536E0,-6.608511209E-1,-5.433082581E-3,9.601001441E-2
3.723154328E0,-6.116233468E-1,1.458168030E-3,5.903521925E-2
3.728125786E0,-5.643905401E-1,-1.076412201E-2,9.116435051E-2
3.733097244E0,-5.479434133E-1,-5.027294159E-2,5.634802580E-2
3.738068703E0,-5.035400391E-1,-4.318046570E-2,5.597052723E-2
3.743040161E0,-5.017508864E-1,-4.451942444E-2,5.441635475E-2
3.748011619E0,-4.863180220E-1,-2.452182770E-2,5.378780514E-2
3.752969171E0,-4.988537729E-1,-3.443336487E-2,4.352965206E-2
3.757940630E0,-5.057814121E-1,-3.361129761E-2,4.044298828E-2
3.762912088E0,-4.620406032E-1,-4.115104675E-2,4.899537191E-2
3.767883546E0,-4.702026546E-1,-4.866600037E-2,1.942702755E-2
3.772855005E0,-4.609187245E-1,-5.496788025E-2,2.681183070E-2
3.777826463E0,-4.592257142E-1,-5.649566650E-2,2.808641642E-2
3.782785109E0,-4.567403495E-1,-3.903770447E-2,-4.012767226E-3
3.787756567E0,-4.555940032E-1,-5.856323242E-2,-1.424621791E-3
3.792728026E0,-4.583295584E-1,-3.400039673E-2,-2.956042066E-2
3.797699484E0,-4.482849538E-1,-1.560592651E-2,-3.025659919E-2
3.802670942E0,-4.360232055E-1,-8.064270020E-3,-6.276382506E-2
3.807642401E0,-4.395346940E-1,-6.046295166E-4,-5.325588956E-2
3.812604484E0,-4.336546063E-1,1.984691620E-2,-5.441362411E-2
3.817575942E0,-4.574753642E-1,3.418350220E-2,-8.973266929E-2
3.822547401E0,-4.621689916E-1,5.314350128E-2,-8.532874286E-2
3.827518859E0,-4.988386035E-1,4.580879211E-2,-8.902001381E-2
3.832490317E0,-4.599541426E-1,5.636119843E-2,-9.361520410E-2
3.837461776E0,-4.911323786E-1,7.633304596E-2,-1.191628352E-1
3.842419536E0,-4.471371770E-1,8.901214600E-2,-1.095836163E-1
3.847390994E0,-4.838128388E-1,5.764102936E-2,-1.178229898E-1
3.852362453E0,-4.900203049E-1,5.267047882E-2,-1.124574691E-1
3.857333911E0,-4.862830639E-1,3.705310822E-2,-1.317923963E-1
3.862305369E0,-4.714178741E-1,2.750873566E-2,-7.350103557E-2
3.867276828E0,-4.939561188E-1,1.686191559E-2,-1.091379076E-1
3.872234015E0,-4.719743729E-1,7.490158081E-3,-1.036740020E-1
3.877205474E0,-4.671040177E-1,-1.130104065E-2,-6.973972172E-2
3.882176932E0,-4.828732610E-1,-2.280998230E-2,-9.275832772E-2
3.887148390E0,-4.869902730E-1,-2.234840393E-2,-6.553187966E-2
3.892119849E0,-4.747221470E-1,-1.477146149E-2,-4.895292222E-2
3.897091307E0,-4.723894000E-1,-6.082534790E-3,-3.131059557E-2
3.902051203E0,-4.382711053E-1,-2.005004883E-2,-3.505368531E-2
3.907022661E0,-4.531946778E-1,-3.035831451E-2,-1.863273978E-2
3.911994119E0,-4.253822863E-1,-6.198978424E-2,7.066339254E-3
3.916965578E0,-4.310781658E-1,-1.504011154E-1,7.680691779E-3
3.921937036E0,-4.049074650E-1,-1.692285538E-1,3.309851512E-2
3.926908494E0,-3.673254550E-1,-2.212009430E-1,4.169753194E-2
3.931866828E0,-3.137347102E-1,-2.609186172E-1,1.078888774E-2
3.936838286E0,-2.844567597E-1,-3.086776733E-1,3.581067175E-2
3.941809744E0,-2.581225932E-1,-3.382930756E-1,3.531756625E-2
3.946781203E0,-2.180510759E-1,-3.309106827E-1,5.378373712E-2
3.951752661E0,-1.419448256E-1,-3.509864807E-1,6.476573646E-2
3.956724119E0,-1.157786995E-1,-3.590984344E-1,3.372553363E-2
3.961682713E0,-2.040256560E-2,-3.600969315E-1,5.983304605E-2
3.966654171E0,2.218812704E-3,-3.706731796E-1,6.897151470E-2
3.971625630E0,6.168919802E-2,-3.764915466E-1,5.162366852E-2
3.976597088E0,1.326553524E-1,-3.657102585E-1,5.805812031E-2
3.981568546E0,1.817359477E-1,-3.669738770E-1,4.773659259E-2
3.986540057E0,2.480503768E-1,-3.409767151E-1,3.962630779E-2
3.991498599E0,2.814448774E-1,-3.105077744E-1,2.772100642E-2
3.996470057E0,3.667182922E-1,-2.934226990E-1,4.321610183E-2
4.001441515E0,3.832192719E-1,-2.575283051E-1,1.812562346E-2
4.006412974E0,4.300530255E-1,-2.445478439E-1,3.825888038E-2
4.011384432E0,4.983387589E-1,-2.079505920E-1,-3.585565835E-3
4.016355890E0,4.885416329E-1,-1.823911667E-1,-4.766706377E-3
4.021315734E0,5.387480855E-1,-1.677579880E-1,3.416284919E-3
4.026287192E0,5.571419001E-1,-2.114725113E-1,1.388949901E-2
4.031258651E0,6.055122614E-1,-1.942558289E-1,-2.439014614E-2
4.036230109E0,5.959486365E-1,-2.068910599E-1,-2.673644200E-2
4.041201567E0,6.119210720E-1,-1.695384979E-1,-3.124870732E-2
4.046173026E0,6.140967607E-1,-1.657590866E-1,-2.493077889E-2
4.051132401E0,6.641744375E-1,-1.299333572E-1,-6.379172951E-2
4.056103859E0,6.480373144E-1,-1.134109497E-1,-4.624443129E-2
4.061075317E0,6.682562828E-1,-1.112737656E-1,-5.835262313E-2
4.066046776E0,6.662486792E-1,-7.944393158E-2,-6.669390947E-2
4.071018234E0,6.757700443E-1,-6.213474274E-2,-7.718359679E-2
4.075989692E0,6.870905757E-1,-7.584190369E-2,-7.413166761E-2
4.080949067E0,6.693485379E-1,-1.119937897E-1,-7.929109037E-2
4.085920526E0,6.705664992E-1,-9.321689606E-2,-7.725083083E-2
4.090891984E0,6.654417515E-1,-1.209087372E-1,-1.079756692E-1
4.095863442E0,6.659569740E-1,-1.317377090E-1,-7.183078676E-2
4.100834901E0,6.755770445E-1,-1.472148895E-1,-1.068122834E-1
4.105806359E0,6.589310765E-1,-1.459465027E-1,-1.173602343E-1
4.110766359E0,6.458931565E-1,-1.375722885E-1,-8.011878282E-2
4.115737453E0,6.413635015E-1,-1.471080780E-1,-7.855614275E-2
4.120708494E0,6.333045959E-1,-1.815233231E-1,-1.240979210E-1
4.125679536E0,6.133777499E-1,-1.812191010E-1,-7.874022424E-2
4.130650578E0,6.294801831E-1,-2.047090530E-1,-9.173140675E-2
4.135621619E0,6.254588962E-1,-1.959695816E-1,-7.568939030E-2
4.140581515E0,6.418029070E-1,-1.908960342E-1,-8.692352474E-2
4.145552609E0,6.299006939E-1,-1.740379333E-1,-6.093881279E-2
4.150523651E0,6.291458607E-1,-1.478719711E-1,-2.903516591E-2
4.155494692E0,6.241084337E-1,-1.564302444E-1,-3.516320139E-2
4.160465734E0,6.229037642E-1,-1.400184631E-1,6.420243531E-3
4.165436776E0,6.235415339E-1,-1.440172195E-1,5.069279112E-3
4.170397349E0,6.212139726E-1,-1.575660706E-1,1.807620004E-2
4.175368442E0,6.326569319E-1,-1.651535034E-1,1.372056315E-3
4.180339484E0,6.303168535E-1,-1.608858109E-1,4.186353460E-2
4.185310526E0,6.404920220E-1,-1.603078842E-1,2.554759849E-3
4.190281567E0,6.466573477E-1,-1.515350342E-1,3.358999640E-2
4.195252609E0,6.533104181E-1,-1.500549316E-1,7.029385865E-2
4.200214119E0,6.844186783E-1,-1.760215759E-1,7.681334019E-2
4.205185213E0,7.111797333E-1,-1.603097916E-1,7.735064626E-2
4.210156255E0,7.371475697E-1,-1.424636841E-1,9.668672085E-2
4.215127296E0,7.776653767E-1,-1.260547638E-1,8.015774935E-2
4.220098338E0,8.113616109E-1,-9.446048737E-2,1.099975556E-1
4.225069380E0,8.285555243E-1,-6.559944153E-2,1.061719507E-1
4.230031567E0,9.016869068E-1,-5.012321472E-2,1.021112949E-1
4.235002661E0,9.352322221E-1,-3.723239899E-2,1.005010381E-1
4.239973703E0,1.010345578E0,-2.453327179E-2,9.766268730E-2
4.244944744E0,1.056184769E0,-4.523468018E-2,8.977615088E-2
4.249915786E0,1.076739907E0,1.885414124E-3,1.150275841E-1
4.254886828E0,1.148031592E0,-2.268505096E-2,8.771450818E-2
4.259846255E0,1.161384225E0,-2.211570740E-2,1.055388898E-1
4.264817349E0,1.179037809E0,-2.511692047E-2,1.373260617E-1
4.269788390E0,1.251866341E0,-4.826927185E-2,8.329693228E-2
4.274759432E0,1.261821389E0,-3.200721741E-2,1.292813122E-1
4.279730474E0,1.316223145E0,-5.741500854E-2,1.249123663E-1
4.284701515E0,1.344545841E0,-7.661914825E-2,1.323785335E-1
4.289663286E0,1.365866899E0,-7.895660400E-2,1.194268465E-1
4.294634380E0,1.363830090E0,-5.390548706E-2,1.089466065E-1
4.299605421E0,1.407322168E0,-6.580257416E-2,1.222780123E-1
4.304576463E0,1.422350168E0,-5.970096588E-2,9.501603246E-2
4.309547505E0,1.448165417E0,-6.779575348E-2,8.452764153E-2
4.314518546E0,1.439596295E0,-6.859016418E-2,6.938161701E-2
4.319480057E0,1.465888262E0,-5.977630615E-2,1.055833623E-1
4.324451151E0,1.461391211E0,-1.020021439E-1,9.268929064E-2
4.329422192E0,1.463226676E0,-4.993915558E-2,8.813481033E-2
4.334393234E0,1.444977045E0,-6.231117249E-2,7.314407825E-2
4.339364276E0,1.453521252E0,-8.755874634E-2,6.985963881E-2
4.344335317E0,1.450370908E0,-7.565021515E-2,6.917435676E-2
4.349296203E0,1.441638470E0,-1.159915924E-1,7.226598263E-2
4.354267296E0,1.440617919E0,-1.107711792E-1,6.115119159E-2
4.359238338E0,1.406810760E0,-1.245031357E-1,6.576391309E-2
4.364209380E0,1.417669773E0,-1.285142899E-1,4.775343090E-2
4.369180421E0,1.414904594E0,-1.146116257E-1,1.581632346E-2
4.374151463E0,1.387706876E0,-1.423053741E-1,6.527213007E-2
4.379129953E0,1.360179901E0,-1.554412842E-1,7.175365835E-2
4.384101046E0,1.358662605E0,-1.814832687E-1,5.811619759E-2
4.389072088E0,1.316258192E0,-1.763591766E-1,3.301533312E-2
4.394043130E0,1.305937171E0,-2.128047943E-1,5.099170655E-2
4.399014171E0,1.282302618E0,-2.168321609E-1,7.131700218E-2
4.403985213E0,1.275415659E0,-2.505111694E-1,4.890092462E-2
4.408930161E0,1.240972281E0,-2.316093445E-1,8.145596832E-2
4.413901255E0,1.215271592E0,-2.485170364E-1,1.150803939E-1
4.418872296E0,1.171893120E0,-1.880693436E-1,1.032722592E-1
4.423843338E0,1.171688437E0,-1.958370209E-1,1.012688428E-1
4.428814380E0,1.151581407E0,-1.845731735E-1,1.218262315E-1
4.433785421E0,1.132959843E0,-1.556062698E-1,1.043635234E-1
4.438744276E0,1.153958321E0,-1.459197998E-1,1.213824823E-1
4.443715369E0,1.109734297E0,-1.256608963E-1,1.513087749E-1
4.448686411E0,1.125684261E0,-1.186943054E-1,1.370777488E-1
4.453657453E0,1.090689063E0,-1.070671082E-1,1.430156976E-1
4.458628494E0,1.092140317E0,-7.897853851E-2,1.761263758E-1
4.463599536E0,1.054905176E0,-1.034526825E-1,1.779534370E-1
4.468570317E0,1.059916735E0,-6.600952148E-2,1.748797596E-1
4.473541359E0,1.046351671E0,-6.813335419E-2,2.094955891E-1
4.478512401E0,1.068950891E0,-6.554412842E-2,2.318266630E-1
4.483483442E0,1.096608520E0,-5.710506439E-2,2.240034044E-1
4.488454484E0,1.114977121E0,-7.967662811E-2,2.148645371E-1
4.493425526E0,1.089612126E0,-7.597827911E-2,2.233407199E-1
4.498401619E0,1.149040341E0,-6.284427643E-2,2.209111154E-1
4.503372713E0,1.185890198E0,-7.482719421E-2,2.514713407E-1
4.508343755E0,1.167823911E0,-2.019691467E-2,2.196451426E-1
4.513314796E0,1.196363688E0,-5.239486694E-3,2.164710462E-1
4.518285838E0,1.228309393E0,-3.479957581E-3,2.343022674E-1
4.523256880E0,1.243259788E0,1.015663147E-2,2.457450032E-1
4.528206880E0,1.323101521E0,4.510211945E-2,2.283346653E-1
4.533177974E0,1.285802603E0,7.501411438E-2,2.169145942E-1
4.538149015E0,1.332787752E0,1.213569641E-1,2.314345837E-1
4.543120057E0,1.352940917E0,1.222238541E-1,2.110976726E-1
4.548091099E0,1.393583536E0,1.243734360E-1,2.476749420E-1
4.553062140E0,1.392937422E0,1.099596024E-1,2.182899714E-1
4.558033755E0,1.404669046E0,1.159553528E-1,2.222840935E-1
4.563004849E0,1.421647668E0,8.517074585E-2,2.187512368E-1
4.567975890E0,1.450672269E0,5.595493317E-2,2.161862850E-1
4.572946932E0,1.420614719E0,8.290195465E-2,2.122119665E-1
4.577917974E0,1.425589561E0,4.797935486E-2,1.975353509E-1
4.582889015E0,1.419035673E0,6.691551208E-2,1.944864839E-1
4.587818390E0,1.425813317E0,5.256938934E-2,2.008918673E-1
4.592789432E0,1.432947040E0,5.270957947E-2,1.677603424E-1
4.597760474E0,1.433182240E0,7.316398621E-2,1.728271246E-1
4.602731567E0,1.396803617E0,6.032657623E-2,1.680936217E-1
4.607702609E0,1.419369340E0,3.819274902E-2,1.455409378E-1
4.612673651E0,1.389695287E0,2.469062805E-2,1.146746129E-1
4.617641151E0,1.397272944E0,6.012916565E-2,1.388085485E-1
4.622611880E0,1.381395459E0,9.300136566E-2,1.247398853E-1
4.627582557E0,1.382437468E0,1.007823944E-1,1.002787128E-1
4.632553286E0,1.356464982E0,1.086034775E-1,9.027542919E-2
4.637524015E0,1.354723573E0,1.235971451E-1,6.147861481E-2
4.642494692E0,1.325992227E0,1.266889572E-1,7.688855380E-2
4.647458911E0,1.289555311E0,1.179637909E-1,7.585294545E-2
4.652429640E0,1.260908961E0,1.236515045E-1,5.241734162E-2
4.657400317E0,1.224676371E0,1.329231262E-1,7.588706166E-2
4.662371046E0,1.205868959E0,1.267423630E-1,2.926449478E-2
4.667341776E0,1.137929440E0,1.218490601E-1,5.817768350E-2
4.672312453E0,1.091473579E0,1.027774811E-1,5.502731353E-2
4.677274067E0,1.064066291E0,9.338665009E-2,4.985282570E-2
4.682244796E0,1.041183710E0,9.954357147E-2,5.333274603E-2
4.687215474E0,1.002975464E0,1.008863449E-1,5.708723515E-2
4.692186203E0,9.374879599E-1,6.896972656E-2,6.806227565E-2
4.697156932E0,9.175285101E-1,7.532596588E-2,6.122807786E-2
4.702127609E0,8.845950365E-1,6.142425537E-2,7.262189686E-2
4.707091932E0,8.568042517E-1,1.672649384E-2,6.496822834E-2
4.712062661E0,8.292341232E-1,-8.612632751E-3,9.314154088E-2
4.717033338E0,7.772857547E-1,-2.072429657E-2,8.793783188E-2
4.722004067E0,7.626729608E-1,-2.800941467E-2,1.315803379E-1
4.726974796E0,7.294880152E-1,-2.933692932E-2,1.214379594E-1
4.731945474E0,6.967625618E-1,-3.306198120E-2,1.208238080E-1
4.736907869E0,6.957211494E-1,8.319854736E-3,1.202518493E-1
4.741878599E0,6.629430056E-1,3.387832642E-2,1.241455004E-1
4.746849276E0,6.379538178E-1,4.967784882E-2,1.731136441E-1
4.751820005E0,6.504065990E-1,4.154777527E-2,1.727513373E-1
4.756790734E0,6.061060429E-1,5.601501465E-2,1.591906697E-1
4.761761411E0,6.040060520E-1,6.796264648E-2,1.631954610E-1
4.766725005E0,6.343396902E-1,2.038764954E-2,1.799390614E-1
4.771695734E0,6.100320816E-1,-4.247665405E-3,2.010643035E-1
4.776666411E0,5.968998075E-1,-7.859230042E-2,1.660888642E-1
4.781637140E0,6.089214087E-1,-8.818721771E-2,1.796724051E-1
4.786607869E0,6.067442894E-1,-1.000928879E-1,2.024818957E-1
4.791578546E0,6.285432577E-1,-1.083545685E-1,1.773480922E-1
4.796539953E0,6.097839475E-1,-1.201162338E-1,1.853242517E-1
4.801510682E0,5.993288159E-1,-1.198911667E-1,1.774753928E-1
4.806481359E0,6.400566101E-1,-1.315517426E-1,1.588313133E-1
4.811452088E0,6.268619895E-1,-1.074771881E-1,1.568269283E-1
4.816422817E0,6.396716237E-1,-1.014080048E-1,1.356371492E-1
4.821393494E0,6.365681887E-1,-1.001205444E-1,1.690346599E-1
4.826357817E0,6.794292927E-1,-7.744503021E-2,1.437614262E-1
4.831328546E0,6.525387764E-1,-8.700180054E-2,1.198409870E-1
4.836299224E0,6.740742922E-1,-3.231525421E-2,1.053302288E-1
4.841269953E0,6.912156940E-1,-2.793979645E-2,1.085917354E-1
4.846240682E0,6.647782922E-1,-8.129119873E-3,1.153446734E-1
4.851211359E0,6.782944202E-1,3.648567200E-2,9.106715769E-2
4.856172505E0,6.539350748E-1,3.088092804E-2,8.969365805E-2
4.861143234E0,6.613324881E-1,3.958892822E-2,9.162113070E-2
4.866113911E0,6.594703197E-1,7.319736481E-2,9.946002811E-2
4.871084640E0,6.259087920E-1,7.210350037E-2,6.207243353E-2
4.876055369E0,6.107994914E-1,8.291435242E-2,8.208039403E-2
4.881026046E0,5.950610638E-1,9.602069855E-2,7.466100156E-2
4.885990317E0,5.868787766E-1,1.565427780E-1,5.661028624E-2
4.890961046E0,5.707099438E-1,1.987543106E-1,4.234933853E-2
4.895931724E0,5.609987974E-1,6.482410431E-2,4.847445339E-2
4.900902453E0,5.374193788E-1,7.453918457E-2,3.346006572E-2
4.905873182E0,5.155810714E-1,3.190326691E-2,1.978651434E-2
4.910843859E0,4.788403213E-1,-1.989364624E-2,4.189131781E-3
4.915790005E0,4.287368059E-1,-5.347061157E-2,-2.288135141E-2
4.920760734E0,4.043022990E-1,-7.134914398E-2,-7.851429284E-3
4.925731411E0,3.366607726E-1,-9.742450714E-2,-1.783302426E-2
4.930702140E0,3.035057783E-1,-1.150083542E-1,-1.427329611E-2
4.935672869E0,2.701826096E-1,-1.277408600E-1,-9.319948032E-3
4.940643546E0,2.143322378E-1,-9.172153473E-2,-3.600741178E-2
4.945621463E0,1.692382097E-1,-9.643650055E-2,-1.929458231E-2
4.950592192E0,1.326578856E-1,-1.106700897E-1,-4.754272848E-2
4.955562869E0,1.233363003E-1,-1.295881271E-1,-2.914969437E-2
4.960533599E0,4.979461432E-2,-1.626615524E-1,-2.466916293E-2
4.965504328E0,5.343601108E-3,-1.681985855E-1,-3.786075860E-2
4.970475005E0,-3.398843110E-2,-2.129459381E-1,2.794714645E-3
4.975439744E0,-6.689941138E-2,-2.383747101E-1,1.943244226E-2
4.980410474E0,-1.054296345E-1,-2.565212250E-1,3.626960889E-2
4.985381151E0,-1.386843026E-1,-2.603187561E-1,2.791891992E-2
4.990351880E0,-1.762616336E-1,-2.403812408E-1,4.008718207E-2
4.995322609E0,-2.426528633E-1,-2.456026077E-1,5.341701955E-2
5.000293286E0,-2.381565273E-1,-2.425107956E-1,7.471197098E-2
5.005254067E0,-2.951613665E-1,-2.537441254E-1,7.694716752E-2
5.010224796E0,-3.120500445E-1,-2.613582611E-1,1.039224193E-1
5.015195474E0,-3.223184645E-1,-2.796354294E-1,9.366145730E-2
5.020166203E0,-3.368932009E-1,-2.645359039E-1,6.922642142E-2
5.025136932E0,-3.889177144E-1,-3.054180145E-1,1.195029318E-1
5.030107609E0,-4.043869376E-1,-3.139171600E-1,1.063480079E-1
5.035073494E0,-4.123527408E-1,-2.962408066E-1,1.250764281E-1
5.040044224E0,-4.007527232E-1,-2.822971344E-1,1.184339225E-1
5.045014901E0,-4.148914218E-1,-2.661123276E-1,1.260085702E-1
5.049985630E0,-4.156955183E-1,-2.346458435E-1,1.367857754E-1
5.054956359E0,-4.469636083E-1,-2.022714615E-1,9.269031137E-2
5.059927036E0,-4.468586743E-1,-1.903762817E-1,1.365807205E-1
5.064887974E0,-4.454057217E-1,-1.821651459E-1,8.969336748E-2
5.069858703E0,-4.389403462E-1,-1.300926208E-1,8.704650402E-2
5.074829380E0,-4.620954394E-1,-1.414251328E-1,1.079273000E-1
5.079800109E0,-4.527050853E-1,-1.289224625E-1,9.652018547E-2
5.084770838E0,-4.658073783E-1,-8.090877533E-2,6.610632688E-2
5.089741515E0,-4.337706864E-1,-6.539058685E-2,7.499878109E-2
5.094706255E0,-4.578336477E-1,-7.971954346E-2,8.240041882E-2
5.099676984E0,-4.343637228E-1,-5.832672119E-2,5.770233274E-2
5.104647661E0,-4.432383776E-1,-7.752323151E-2,5.441752821E-2
5.109618390E0,-4.688256979E-1,-7.402420044E-2,5.699693412E-2
5.114589119E0,-4.599900842E-1,-1.121597290E-1,7.616776228E-2
5.119559796E0,-4.799965620E-1,-1.797075272E-1,7.135122269E-2
5.124522244E0,-5.014387369E-1,-2.503013611E-1,5.829122663E-2
5.129492661E0,-4.943071902E-1,-2.953968048E-1,6.300384551E-2
5.134463130E0,-4.862861633E-1,-3.437156677E-1,7.353633642E-2
5.139433599E0,-5.262385011E-1,-3.643627167E-1,6.247926131E-2
5.144404015E0,-5.186907649E-1,-3.540029526E-1,3.961187974E-2
5.149374484E0,-5.282307267E-1,-3.877286911E-1,3.716099262E-2
5.154357036E0,-5.394283533E-1,-3.523435593E-1,4.053040966E-2
5.159327453E0,-5.436739326E-1,-3.315544128E-1,2.482138202E-2
5.164297921E0,-5.615530610E-1,-3.038816452E-1,5.889862776E-3
5.169268338E0,-5.701490641E-1,-2.563047409E-1,-1.763498783E-2
5.174238807E0,-5.804110169E-1,-2.020702362E-1,-1.469511352E-2
5.179209276E0,-5.946727991E-1,-1.638011932E-1,-3.545732796E-2
5.184152140E0,-6.222473383E-1,-1.674861908E-1,-2.017231099E-2
5.189122557E0,-6.431408525E-1,-1.450958252E-1,-4.160631076E-2
5.194093026E0,-6.806439757E-1,-1.027565002E-1,-4.977887869E-2
5.199063494E0,-6.956297755E-1,-8.815765381E-2,-5.041334778E-2
5.204033911E0,-7.358992100E-1,-5.712890625E-2,-7.926723361E-2
5.209004380E0,-7.509899735E-1,-2.522373199E-2,-7.524558157E-2
5.213969067E0,-7.792463303E-1,-1.383972168E-2,-5.331697688E-2
5.218939484E0,-8.206426501E-1,-4.997253418E-3,-7.396557182E-2
5.223909953E0,-8.485710621E-1,-1.020431519E-3,-9.763452411E-2
5.228880421E0,-8.965823650E-1,-2.089023590E-2,-7.320956886E-2
5.233850838E0,-9.097671509E-1,-2.876377106E-2,-5.331733078E-2
5.238821307E0,-9.383552670E-1,-3.068351746E-2,-6.888744980E-2
5.243785630E0,-9.843281507E-1,-7.775306702E-2,-8.768553287E-2
5.248756046E0,-1.017987728E0,-6.864452362E-2,-6.801360846E-2
5.253726515E0,-1.041573286E0,-9.644985199E-2,-3.395330161E-2
5.258696984E0,-1.045797110E0,-1.478042603E-1,-5.450645834E-2
5.263667401E0,-1.070997357E0,-1.999263763E-1,-2.486282960E-2
5.268637869E0,-1.097042918E0,-2.492637634E-1,8.066110313E-3
5.273601880E0,-1.136754274E0,-3.255128860E-1,2.931185998E-3
5.278572296E0,-1.170946956E0,-3.476686478E-1,2.147869021E-2
5.283542765E0,-1.218640924E0,-4.076347351E-1,5.757787824E-2
5.288513234E0,-1.204817891E0,-4.183788300E-1,8.248192072E-2
5.293483651E0,-1.259508967E0,-4.100065231E-1,9.138166159E-2
5.298454119E0,-1.265794039E0,-4.052467346E-1,7.632739097E-2
5.303433755E0,-1.267776489E0,-3.945388794E-1,1.108219475E-1
5.308404171E0,-1.278740406E0,-3.791370392E-1,1.365738064E-1
5.313374640E0,-1.316466212E0,-3.234510422E-1,1.211279780E-1
5.318345109E0,-1.315298319E0,-2.943162918E-1,1.423907578E-1
5.323315526E0,-1.323096991E0,-2.380599976E-1,1.343359202E-1
5.328285994E0,-1.333640218E0,-2.095232010E-1,1.259162873E-1
5.333238911E0,-1.323218107E0,-2.108564377E-1,1.244385988E-1
5.338209328E0,-1.343332171E0,-1.230602264E-1,1.106936410E-1
5.343179796E0,-1.328260303E0,-1.309614182E-1,1.204986125E-1
5.348150265E0,-1.333011270E0,-1.387510300E-1,1.167438999E-1
5.353120682E0,-1.351402998E0,-9.178447723E-2,1.127522439E-1
5.358091151E0,-1.328840256E0,-8.792686462E-2,7.535476983E-2
5.363050317E0,-1.330880761E0,-1.303710938E-1,7.715591043E-2
5.368020734E0,-1.340626597E0,-1.248922348E-1,5.857146531E-2
5.372991203E0,-1.309542656E0,-1.538648605E-1,6.489446759E-2
5.377961671E0,-1.286693811E0,-1.825618744E-1,4.623301327E-2
5.382932088E0,-1.288717985E0,-1.789245605E-1,2.759959735E-2
5.387902557E0,-1.302291274E0,-1.847896576E-1,3.295175731E-2
5.392866724E0,-1.237264991E0,-1.822834015E-1,1.439762302E-2
5.397837140E0,-1.259268284E0,-1.583957672E-1,-1.343334094E-2
5.402807609E0,-1.235874414E0,-1.525163651E-1,-2.305770665E-2
5.407778078E0,-1.235112071E0,-1.062889099E-1,-1.473119482E-2
5.412748494E0,-1.236808300E0,-6.996154785E-2,-9.991349652E-3
5.417718963E0,-1.206366777E0,-2.918338776E-2,-3.384426609E-2
5.422680994E0,-1.191856742E0,4.100799561E-3,-5.719766021E-2
5.427651463E0,-1.166925430E0,5.609130859E-2,-5.771265179E-2
5.432621880E0,-1.182763934E0,1.349430084E-1,-4.259853810E-2
5.437592349E0,-1.157103300E0,1.893548965E-1,-5.362846330E-2
5.442562817E0,-1.165116191E0,2.349729538E-1,-4.538163543E-2
5.447533286E0,-1.164897799E0,2.362394333E-1,-6.454344094E-2
5.452499224E0,-1.191002131E0,2.125282288E-1,-4.417852685E-2
5.457469640E0,-1.187356114E0,1.545438766E-1,-4.626882821E-2
5.462440109E0,-1.182781219E0,1.029510498E-1,-4.226925969E-2
5.467410578E0,-1.212736487E0,1.970672607E-2,-7.383481413E-2
5.472380994E0,-1.227076173E0,-5.097770691E-2,-6.573458016E-2
5.477351463E0,-1.257973909E0,-1.044540405E-1,-6.470167637E-2
5.482318390E0,-1.251755953E0,-1.657991409E-1,-6.232123077E-2
5.487288807E0,-1.259722114E0,-2.171211243E-1,-4.192785919E-2
5.492259276E0,-1.287813425E0,-2.608919144E-1,-6.319547445E-2
5.497229744E0,-1.284685493E0,-3.031005859E-1,-6.983571500E-2
5.502200161E0,-1.282719851E0,-2.487430573E-1,-4.643829167E-2
5.507170630E0,-1.292416096E0,-2.150068283E-1,-3.743823618E-2
5.512133286E0,-1.284245610E0,-1.768074036E-1,-4.025581479E-2
5.517103703E0,-1.315256238E0,-1.317911148E-1,-5.938377604E-2
5.522074171E0,-1.349182010E0,-8.591747284E-2,-3.789373115E-2
5.527044640E0,-1.324571729E0,-4.398536682E-2,-5.082785711E-2
5.532015057E0,-1.353303432E0,-4.740715027E-3,-5.404231325E-2
5.536985526E0,-1.364855051E0,-9.734153748E-3,-2.622549050E-2
5.541946567E0,-1.394850850E0,1.998901367E-3,-1.881582662E-2
5.546916984E0,-1.410027623E0,-4.809284210E-2,-8.999247104E-3
5.551887453E0,-1.413869262E0,-7.870006561E-2,-1.485367492E-2
5.556857921E0,-1.433737874E0,-1.386756897E-1,-1.598539576E-2
5.561828338E0,-1.470584869E0,-1.529321671E-1,-1.743372530E-3
5.566798807E0,-1.475466371E0,-1.895418167E-1,2.305264026E-2
5.571765317E0,-1.486521840E0,-1.853494644E-1,2.958461270E-2
5.576735734E0,-1.506035924E0,-2.404632568E-1,5.583081767E-2
5.581706151E0,-1.508007765E0,-2.106914520E-1,1.522444934E-2
5.586676619E0,-1.495888591E0,-2.131166458E-1,5.896446854E-2
5.591647088E0,-1.475785971E0,-1.572046280E-1,5.589176342E-2
5.596617557E0,-1.477459669E0,-1.420278549E-1,5.481343716E-2
5.601583546E0,-1.473355174E0,-1.221075058E-1,5.339530483E-2
5.606553963E0,-1.469541311E0,-5.829524994E-2,7.198171318E-2
5.611524432E0,-1.430457473E0,-4.242992401E-2,3.907749802E-2
5.616494901E0,-1.425288320E0,1.140689850E-2,3.228834644E-2
5.621465317E0,-1.378895164E0,4.113674164E-2,2.270671353E-2
5.626435786E0,-1.339340568E0,6.949996948E-2,5.463475361E-2
5.631421724E0,-1.322181344E0,1.119298935E-1,-1.839950681E-3
5.636392036E0,-1.286680937E0,9.349727631E-2,1.451973617E-2
5.641362296E0,-1.246412754E0,7.524585724E-2,1.879335195E-2
5.646332609E0,-1.196432590E0,7.620334625E-2,-1.155830547E-2
5.651302869E0,-1.159828663E0,1.187267303E-1,-3.455861285E-2
5.656273182E0,-1.107672930E0,1.312379837E-1,-3.357751295E-2
5.661238546E0,-1.083351612E0,1.198759079E-1,-4.077317193E-2
5.666208859E0,-1.060336113E0,1.537437439E-1,-7.529179752E-2
5.671179119E0,-1.040016890E0,1.291103363E-1,-8.332917839E-2
5.676149432E0,-1.007961988E0,1.391258240E-1,-8.750009537E-2
5.681119692E0,-9.597265124E-1,1.169652939E-1,-8.312770724E-2
5.686090005E0,-9.665540457E-1,9.260940552E-2,-1.047508344E-1
5.691009224E0,-9.533796310E-1,4.348659515E-2,-1.033708155E-1
5.695979484E0,-9.130846262E-1,4.464626312E-2,-8.409173042E-2
5.700949796E0,-9.503821135E-1,-1.003360748E-2,-1.132692769E-1
5.705920057E0,-9.578031898E-1,-4.526805878E-2,-8.968256414E-2
5.710890369E0,-9.615461826E-1,-4.100990295E-2,-1.349753141E-1
5.715860630E0,-9.390499592E-1,-6.172847748E-2,-1.074484065E-1
5.720847192E0,-9.533396363E-1,7.808971405E-2,-1.156413257E-1
5.725817505E0,-9.316068888E-1,-7.780361176E-2,-1.116857380E-1
5.730787765E0,-9.101066589E-1,-1.623439789E-2,-8.518991619E-2
5.735758078E0,-9.301247597E-1,-6.324863434E-2,-1.013778001E-1
5.740728338E0,-9.473671913E-1,-1.839923859E-2,-1.090587750E-1
5.745698651E0,-9.036818743E-1,-1.904582977E-2,-1.187404320E-1
5.750665005E0,-9.218181372E-1,-6.628036499E-4,-9.616198391E-2
5.755635317E0,-8.826061487E-1,9.257316589E-3,-5.351121724E-2
5.760605578E0,-8.911013603E-1,-5.097961426E-2,-7.641697675E-2
5.765575890E0,-8.493031859E-1,-2.992820740E-2,-7.407254726E-2
5.770546151E0,-8.373411298E-1,-1.973152161E-2,-7.390355319E-2
5.775516463E0,-8.358837366E-1,-6.424522400E-2,-9.025610983E-2
5.780479171E0,-7.987646461E-1,-7.513523102E-2,-7.183122635E-2
5.785449484E0,-8.330039978E-1,-8.949089050E-2,-6.196947396E-2
5.790419744E0,-7.954335213E-1,-6.927394867E-2,-5.431796610E-2
5.795390057E0,-7.699242234E-1,-1.062402725E-1,-5.271374434E-2
5.800360317E0,-7.717126608E-1,-1.500196457E-1,-7.120569795E-2
5.805330630E0,-7.565203905E-1,-1.625394821E-1,-6.683541834E-2
5.810295526E0,-7.247568369E-1,-1.690235138E-1,-5.050772801E-2
5.815265838E0,-7.238713503E-1,-1.742601395E-1,-1.409347728E-2
5.820236099E0,-7.451457977E-1,-1.568727493E-1,-5.279809237E-2
5.825206411E0,-7.599146366E-1,-1.633777618E-1,-3.302015364E-2
5.830176671E0,-7.801879644E-1,-1.484441757E-1,-3.131024539E-2
5.835146984E0,-7.224378586E-1,-1.039228439E-1,-5.821667612E-3
5.840110942E0,-7.299379706E-1,-7.401275635E-2,3.055632114E-4
5.845081255E0,-7.178643346E-1,-2.177715302E-2,-1.746544242E-2
5.850051515E0,-6.910930872E-1,5.086898804E-3,9.982004762E-3
5.855021828E0,-6.793375611E-1,8.554458618E-4,1.457554102E-2
5.859992088E0,-6.729176044E-1,-5.707740784E-3,1.175624877E-2
5.864962401E0,-7.037277222E-1,-4.783821106E-2,1.121377200E-2
5.869929276E0,-6.683657169E-1,-5.280208588E-2,1.753444970E-2
5.874899588E0,-6.798888445E-1,-1.123542786E-1,2.946750820E-2
5.879869849E0,-6.396158934E-1,-1.310377121E-1,3.859997913E-2
5.884840161E0,-6.201991439E-1,-1.697626114E-1,7.217302918E-3
5.889810421E0,-5.704148412E-1,-1.867961884E-1,3.637250513E-2
5.894780734E0,-5.656821728E-1,-1.894607544E-1,6.809417158E-3
5.899747974E0,-5.200398564E-1,-1.897525787E-1,-1.309558377E-2
5.904718286E0,-4.550818205E-1,-1.865062714E-1,5.108416080E-3
5.909688546E0,-4.366204739E-1,-1.666927338E-1,-1.150219887E-2
5.914658807E0,-4.059633911E-1,-1.530227661E-1,-1.135746017E-2
5.919629119E0,-3.609666526E-1,-1.430692673E-1,-1.589919254E-2
5.924599432E0,-3.076360226E-1,-9.404468536E-2,-2.759734541E-2
5.929562557E0,-2.809075713E-1,-6.091976166E-2,-1.659173518E-2
5.934532869E0,-2.185291648E-1,-7.444000244E-2,-4.243524373E-2
5.939503130E0,-1.375868917E-1,-5.463600159E-2,-6.221635640E-2
5.944473442E0,-1.286093891E-1,-6.473922729E-2,-7.438285649E-2
5.949443703E0,-1.138187349E-1,-7.361602783E-2,-5.539886653E-2
5.954414015E0,-6.953388453E-2,-8.483600616E-2,-9.321050346E-2
5.959377869E0,-6.140765920E-2,-3.424453735E-2,-6.645272672E-2
5.964348182E0,-3.550546616E-2,-1.618671417E-2,-7.786449045E-2
5.969318442E0,-1.348802447E-2,6.428718567E-3,-7.460619509E-2
5.974288755E0,1.534121484E-2,3.237819672E-2,-5.104393512E-2
5.979259015E0,4.253288358E-2,6.876373291E-2,-8.788010478E-2
5.984229328E0,4.083289951E-2,9.055328369E-2,-8.850745112E-2
5.989193546E0,7.826392353E-2,9.311866760E-2,-9.963026643E-2
5.994163807E0,9.275806695E-2,9.918975830E-2,-9.508076310E-2
5.999134119E0,1.010331064E-1,7.666778564E-2,-6.427471340E-2
6.004104432E0,1.043024436E-1,1.172533035E-1,-5.832454935E-2
6.009074692E0,1.527281404E-1,9.925842285E-2,-5.597864091E-2
6.014045005E0,1.602585018E-1,7.425594330E-2,-3.928914666E-2
6.019009380E0,1.807388663E-1,6.249046326E-2,-3.915710375E-2
6.023979692E0,2.211305797E-1,3.416347504E-2,-4.833786190E-2
6.028949953E0,2.182147205E-1,3.454971313E-2,-3.487062827E-2
6.033920213E0,2.308916152E-1,1.589012146E-2,-2.321887761E-3
6.038890526E0,2.173810452E-1,9.228706360E-3,-3.170657903E-2
6.043860838E0,2.633435130E-1,2.396678925E-2,-2.409138717E-2
6.048823182E0,2.423999012E-1,-1.846218109E-2,-2.160815522E-3
6.053793494E0,2.916598916E-1,-2.137565613E-2,1.822297648E-2
6.058763755E0,2.999408245E-1,-2.666759491E-2,7.681714371E-3
6.063734067E0,3.344900012E-1,-7.946681976E-2,-2.081692219E-2
6.068704328E0,3.412753046E-1,-1.021575928E-1,2.363154665E-3
6.073674640E0,3.550259471E-1,-1.068706512E-1,1.814731769E-2
6.078643286E0,3.912485540E-1,-1.246442795E-1,2.558900416E-2
6.083613599E0,3.688184917E-1,-8.884334564E-2,1.166416239E-2
6.088583859E0,3.880939484E-1,-7.831001282E-2,3.093653359E-2
6.093554171E0,4.143604934E-1,-7.502365112E-2,3.236103430E-2
6.098524432E0,4.238300025E-1,-8.367729187E-2,2.661455795E-2
6.103494744E0,4.392885268E-1,-1.053590775E-1,5.876698345E-2
6.108458078E0,4.500215054E-1,-1.162099838E-1,4.063533247E-2
6.113428390E0,4.227868319E-1,-1.578912735E-1,6.071400642E-2
6.118398651E0,4.102664590E-1,-2.123336792E-1,6.739860028E-2
6.123368963E0,4.029148817E-1,-2.153005600E-1,6.436222047E-2
6.128339224E0,4.068351984E-1,-2.634420395E-1,7.661347091E-2
6.133309536E0,4.018731713E-1,-2.863159180E-1,1.003187746E-1
6.138260005E0,4.021143913E-1,-2.948093414E-1,1.330541521E-1
6.143230005E0,4.018246233E-1,-3.377580643E-1,1.009491384E-1
6.148200005E0,4.391679168E-1,-3.685703278E-1,9.373343736E-2
6.153170057E0,4.447587132E-1,-3.659563065E-1,1.218144745E-1
6.158140057E0,4.781976342E-1,-3.943347931E-1,1.077649742E-1
6.163110109E0,4.940660298E-1,-3.964328766E-1,1.197256893E-1
6.168090474E0,5.400471687E-1,-3.736639023E-1,1.133927256E-1
6.173060526E0,6.038292646E-1,-3.190965652E-1,8.903244883E-2
6.178030526E0,6.281455159E-1,-2.769355774E-1,1.086616293E-1
6.183000578E0,6.903209686E-1,-2.102413177E-1,6.727910787E-2
6.187970578E0,7.592857480E-1,-2.071228027E-1,7.608120143E-2
6.192940630E0,7.787423730E-1,-1.803064346E-1,3.121325746E-2
6.197907296E0,8.241223693E-1,-1.561355591E-1,4.248723388E-2
6.202877349E0,8.546777964E-1,-1.452646255E-1,2.528587170E-2
6.207847349E0,9.179728627E-1,-1.155042648E-1,-2.031848021E-2
6.212817401E0,9.483030438E-1,-1.608304977E-1,3.587202169E-3
6.217787401E0,9.683812857E-1,-1.606407166E-1,-5.793898366E-3
6.222757453E0,9.842063189E-1,-1.948881149E-1,-1.709473878E-2
6.227721828E0,1.038547158E0,-1.730070114E-1,-5.668249726E-2
6.232691880E0,1.070377588E0,-1.845331192E-1,-7.541360706E-2
6.237661880E0,1.087011576E0,-1.911725998E-1,-6.993468851E-2
6.242631932E0,1.115921021E0,-1.620845795E-1,-6.165820360E-2
6.247601932E0,1.128314376E0,-1.272411346E-1,-6.840890646E-2
6.252571984E0,1.125621319E0,-1.247034073E-1,-7.120809704E-2
6.257539432E0,1.151697278E0,-1.173543930E-1,-9.715685993E-2
6.262509484E0,1.137769938E0,-9.220504761E-2,-5.739384145E-2
6.267479484E0,1.145666122E0,-8.263206482E-2,-5.074425787E-2
6.272449536E0,1.166196942E0,-7.429981232E-2,-4.495405406E-2
6.277419536E0,1.145468712E0,-5.172157288E-2,-3.174584731E-2
6.282389588E0,1.118479133E0,-5.660820007E-2,-1.715205796E-2
6.287355994E0,1.100762367E0,-4.716205597E-2,-2.737583779E-2
6.292326046E0,1.098098636E0,-4.487514496E-2,2.086107433E-2
6.297296046E0,1.103562236E0,-5.090713501E-2,8.366659284E-3
6.302266099E0,1.106448412E0,-8.182525635E-2,7.895156741E-4
6.307236099E0,1.087644339E0,-8.870983124E-2,4.821742326E-2
6.312206151E0,1.042865753E0,-1.193008423E-1,5.829536170E-2
6.317172192E0,1.026955247E0,-1.365814209E-1,7.194566727E-2
6.322142244E0,1.041941643E0,-1.869697571E-1,4.503386840E-2
6.327112244E0,1.052182674E0,-1.728248596E-1,8.603616059E-2
6.332082296E0,1.014750481E0,-1.683006287E-1,9.232836217E-2
6.337052296E0,1.033663273E0,-1.745376587E-1,1.079362407E-1
6.342022349E0,1.009790659E0,-1.534271240E-1,1.054910943E-1
6.346989171E0,1.032716155E0,-1.432275772E-1,1.040941402E-1
6.351959224E0,1.033024192E0,-1.402664185E-1,1.336910278E-1
6.356929224E0,1.048796177E0,-8.864498138E-2,1.380185187E-1
6.361899276E0,1.051837683E0,-1.123485565E-1,1.492788941E-1
6.366869276E0,1.067867041E0,-1.275444031E-1,1.424358785E-1
6.371839328E0,1.040101171E0,-1.272182465E-1,1.593129635E-1
6.376804692E0,1.062593102E0,-1.649293900E-1,1.686578989E-1
6.381774744E0,1.084938288E0,-1.536407471E-1,1.372017413E-1
6.386744744E0,1.069297314E0,-2.208757401E-1,1.617565453E-1
6.391714796E0,1.089627504E0,-2.495803833E-1,1.704303026E-1
6.396684796E0,1.064888239E0,-2.626399994E-1,1.656335890E-1
6.401654849E0,1.078546762E0,-2.435541153E-1,1.889595985E-1
6.406620994E0,1.099205732E0,-2.377004623E-1,1.964550018E-1
6.411591046E0,1.127196074E0,-2.616462708E-1,1.999993622E-1
6.416561046E0,1.128925323E0,-3.091735840E-1,2.185703218E-1
6.421531099E0,1.114169717E0,-2.684383392E-1,2.009612173E-1
6.426501099E0,1.135401368E0,-2.649011612E-1,2.267667651E-1
6.431471151E0,1.148324609E0,-2.566766739E-1,2.199759483E-1
6.436437765E0,1.163684487E0,-2.497406006E-1,2.413499504E-1
6.441407817E0,1.174149513E0,-2.333698273E-1,2.371689081E-1
6.446377817E0,1.218997478E0,-1.969566345E-1,2.063825428E-1
6.451347869E0,1.238450527E0,-2.143001556E-1,2.054129690E-1
6.456317869E0,1.240076065E0,-2.243995667E-1,1.538902521E-1
6.461287921E0,1.259270668E0,-1.940145493E-1,1.752272844E-1
6.466275994E0,1.302997470E0,-1.365423203E-1,1.437980831E-1
6.471246046E0,1.310530543E0,-1.234807968E-1,1.493071616E-1
6.476216046E0,1.312935472E0,-8.436489105E-2,1.107066572E-1
6.481186099E0,1.350559711E0,-8.116626740E-2,1.151777804E-1
6.486156099E0,1.390911460E0,-4.348564148E-2,5.544131249E-2
6.491126151E0,1.399548650E0,-2.981281281E-2,7.115704566E-2
6.496070630E0,1.419263005E0,-5.179595947E-2,2.624531463E-2
6.501040682E0,1.458378673E0,-3.669071198E-2,2.225497179E-2
6.506010682E0,1.466772079E0,-3.230857849E-2,1.138972491E-2
6.510980734E0,1.492131472E0,8.962631226E-3,-3.825820982E-3
6.515950734E0,1.504389048E0,1.914787292E-2,-7.387734950E-4
6.520920786E0,1.480080485E0,4.124259949E-2,-3.175966069E-2
6.525888234E0,1.499086380E0,4.545211792E-2,-1.335995644E-2
6.530858286E0,1.508794308E0,6.756019592E-2,-1.965710521E-2
6.535828286E0,1.496056199E0,7.061767578E-2,-1.602530852E-2
6.540798338E0,1.472034216E0,9.512805939E-2,-2.983647957E-2
6.545768338E0,1.448519707E0,1.266860962E-1,-1.701930910E-2
6.550738390E0,1.440923333E0,1.569175720E-1,-2.393495291E-2
6.555702453E0,1.419698000E0,1.442241669E-1,-2.347020432E-2
6.560672505E0,1.394342065E0,1.661863327E-1,-2.477597445E-3
6.565642505E0,1.386574149E0,1.880264282E-1,6.678022444E-3
6.570612557E0,1.375953317E0,1.824398041E-1,6.549838930E-3
6.575582557E0,1.347138405E0,1.698360443E-1,3.142140806E-2
6.580552609E0,1.330002308E0,1.680870056E-1,6.703599542E-2
6.585518442E0,1.269731760E0,1.367282867E-1,5.364836752E-2
6.590488494E0,1.244178176E0,1.187257767E-1,6.075296178E-2
6.595458494E0,1.239907742E0,7.715702057E-2,9.179502726E-2
6.600428546E0,1.221290588E0,6.208515167E-2,6.999337673E-2
6.605398546E0,1.181397676E0,-9.866714478E-3,1.161301732E-1
6.610368599E0,1.180878282E0,-2.774810791E-2,1.131770983E-1
6.615338182E0,1.159010649E0,-1.816654205E-2,1.018652171E-1
6.620308234E0,1.107580185E0,-2.290821075E-2,1.309279799E-1
6.625278234E0,1.138533235E0,-6.799316406E-2,1.251507103E-1
6.630248286E0,1.114565611E0,-6.043624878E-2,1.512872279E-1
6.635218286E0,1.098983526E0,-4.698562622E-2,1.496799141E-1
6.640188338E0,1.108448267E0,-4.433155060E-2,1.515578479E-1
6.645154536E0,1.079850674E0,-1.675605774E-2,1.661799252E-1
6.650124484E0,1.095309615E0,-9.587287903E-3,1.639897227E-1
6.655094380E0,1.097600222E0,4.650115967E-3,1.898843497E-1
6.660064328E0,1.081848145E0,2.711009979E-2,1.808679998E-1
6.665034276E0,1.076813698E0,-1.676559448E-3,1.669743061E-1
6.670004171E0,1.063454509E0,1.610755920E-2,1.411719620E-1
6.674971255E0,1.070345998E0,6.433486938E-3,1.367201507E-1
6.679941203E0,1.054560304E0,1.703834534E-2,1.534093916E-1
6.684911099E0,1.028241158E0,2.874374390E-2,1.614523530E-1
6.689881046E0,1.036638379E0,4.628562927E-2,1.714612246E-1
6.694850994E0,1.005716801E0,2.805614471E-2,1.562705338E-1
6.699820890E0,1.003429651E0,1.831054688E-2,1.763795316E-1
6.704787505E0,1.014276981E0,-3.530406952E-2,1.615342051E-1
6.709757453E0,9.715059400E-1,-8.883476257E-3,1.538164318E-1
6.714727349E0,9.693455100E-1,-1.236057281E-2,1.766907573E-1
6.719697296E0,9.897435308E-1,-3.837299347E-2,1.683788747E-1
6.724667192E0,9.671859741E-1,-3.589630127E-3,1.302027851E-1
6.729637140E0,9.578291774E-1,-2.254104614E-2,1.372057945E-1
6.734617088E0,9.532740116E-1,-4.845905304E-2,1.345056295E-1
6.739587036E0,9.556766748E-1,-3.256702423E-2,9.965894371E-2
6.744556932E0,9.757200480E-1,-1.916885376E-2,7.810000330E-2
6.749526880E0,9.585421085E-1,-1.892566681E-2,7.682941854E-2
6.754496828E0,9.745061398E-1,1.816272736E-2,5.065056682E-2
6.759466724E0,9.768837094E-1,-5.597114563E-3,2.227447927E-2
6.764442817E0,9.623002410E-1,1.125431061E-2,6.068095565E-2
6.769412765E0,9.900055528E-1,1.889228821E-3,1.220701821E-2
6.774382661E0,9.873464108E-1,2.471065521E-2,2.831360511E-2
6.779352609E0,9.969998598E-1,5.454158783E-2,6.637369283E-3
6.784322557E0,9.998074770E-1,2.956008911E-2,-8.720124140E-3
6.789292453E0,9.984343052E-1,3.690719604E-2,-4.838608671E-3
6.794260838E0,9.928134680E-1,-2.074241638E-3,-1.610461995E-2
6.799230786E0,9.817889929E-1,1.515102386E-2,-2.199560404E-3
6.804200682E0,9.735929966E-1,-6.899833679E-3,-4.623480141E-2
6.809170630E0,9.515986443E-1,3.305721283E-2,-3.848363832E-2
6.814140578E0,9.573638439E-1,1.811122894E-2,-1.263315324E-2
6.819110474E0,9.278345704E-1,4.610252380E-2,-4.834856465E-2
6.824075265E0,9.167652726E-1,4.777717590E-2,-1.935118064E-2
6.829045213E0,8.814272881E-1,2.927303314E-2,-3.306467086E-2
6.834015109E0,8.610749841E-1,5.016040802E-2,-3.563017398E-2
6.838985057E0,8.413041830E-1,6.140613556E-2,-1.074469928E-2
6.843955005E0,7.984064817E-1,5.595970154E-2,-7.232624572E-3
6.848924901E0,7.612101436E-1,1.206521988E-1,7.020530291E-3
6.853867192E0,7.240154743E-1,9.215164185E-2,-9.565594606E-3
6.858837140E0,7.115287781E-1,9.240245819E-2,2.879002690E-2
6.863807036E0,6.335341930E-1,8.076190948E-2,2.765903249E-2
6.868776984E0,6.247174144E-1,3.595161438E-2,3.481014818E-2
6.873746932E0,5.695208311E-1,5.800628662E-2,1.447592396E-2
6.878716828E0,5.312570930E-1,3.590488434E-2,4.548808187E-2
6.883684119E0,4.920021296E-1,3.534221649E-2,7.387402654E-2
6.888654067E0,4.387598038E-1,-1.513099670E-2,7.215104252E-2
6.893623963E0,4.407262206E-1,-5.835533142E-3,7.746177167E-2
6.898593911E0,4.035557210E-1,-3.703498840E-2,6.930252165E-2
6.903563859E0,3.715476394E-1,-5.731868744E-2,8.134911209E-2
6.908533755E0,3.257316947E-1,-5.965614319E-2,8.006267250E-2
6.913493703E0,3.018097878E-1,-9.407711029E-2,1.106646731E-1
6.918463651E0,2.724256814E-1,-1.033086777E-1,1.086318940E-1
6.923433546E0,2.753541470E-1,-1.196165085E-1,9.690530598E-2
6.928403494E0,2.702516019E-1,-1.191987991E-1,1.123668924E-1
6.933373442E0,2.130569220E-1,-1.318807602E-1,9.410566092E-2
6.938343338E0,2.312698364E-1,-1.314182281E-1,1.090438589E-1
6.943316203E0,2.505597472E-1,-1.250457764E-1,7.967694849E-2
6.948286151E0,2.210228294E-1,-1.282548904E-1,1.026093215E-1
6.953256046E0,1.918598562E-1,-1.219625473E-1,8.480580896E-2
6.958225994E0,1.878294647E-1,-1.276235580E-1,9.436710179E-2
6.963195942E0,1.992719620E-1,-1.510772705E-1,5.383304507E-2
6.968165838E0,1.868101358E-1,-1.886119843E-1,5.378084257E-2
6.973133911E0,1.684386283E-1,-1.890344620E-1,3.712706640E-2
6.978103859E0,1.726504564E-1,-2.001638412E-1,4.660784826E-2
6.983073755E0,1.600407511E-1,-2.242879868E-1,3.571145236E-2
6.988043703E0,1.096025705E-1,-1.840982437E-1,2.363754250E-2
6.993013651E0,1.045105755E-1,-2.012739182E-1,4.114921391E-2
6.997983546E0,1.278096139E-1,-1.815090179E-1,2.411546558E-2
7.002948442E0,1.077532619E-1,-1.417369843E-1,2.619986609E-2
7.007918390E0,9.017089754E-2,-1.379537582E-1,6.856726483E-3
7.012888286E0,9.496438503E-2,-8.433723450E-2,-9.926842526E-3
7.017858234E0,8.288067579E-2,-9.176921844E-2,-1.082290336E-2
7.022828182E0,6.464635581E-2,-7.184600830E-2,-2.847541124E-2
7.027798078E0,7.116969675E-2,-6.518077850E-2,1.551847905E-3
7.032764588E0,5.580304191E-2,-3.009033203E-2,-3.392412141E-2
7.037734536E0,4.031933472E-2,-4.283428192E-2,-2.748722397E-2
7.042704432E0,2.457542717E-2,-4.956340790E-2,-4.956417903E-2
7.047674380E0,2.582305344E-3,-2.776336670E-2,-5.354269594E-2
7.052644328E0,-8.952941746E-3,-1.330471039E-2,-2.167931385E-2
7.057614224E0,-3.500802815E-2,-1.682090759E-2,-1.616663113E-2
7.062580786E0,-4.936978221E-2,-1.525878906E-4,-6.152002886E-2
7.067550734E0,-8.544544876E-2,8.926391602E-4,-4.344778135E-2
7.072520630E0,-7.177408040E-2,1.257801056E-2,-5.176844075E-2
7.077490578E0,-8.711208403E-2,2.649784088E-2,-5.749462172E-2
7.082460526E0,-1.277058572E-1,-3.693580627E-3,-5.806450918E-2
7.087430421E0,-1.409268230E-1,-3.987312317E-3,-6.447266787E-2
7.092398703E0,-1.665558517E-1,-3.640365601E-2,-8.263537288E-2
7.097368651E0,-2.088662088E-1,-5.197143555E-2,-7.075451314E-2
7.102338546E0,-2.333181053E-1,-4.845905304E-2,-7.677301019E-2
7.107308494E0,-2.496156693E-1,-6.759929657E-2,-6.353539228E-2
7.112278442E0,-2.957048714E-1,-7.475566864E-2,-4.788656533E-2
7.117248338E0,-3.225871921E-1,-4.627513885E-2,-5.489166826E-2
7.122213442E0,-3.718415201E-1,-9.291076660E-2,-4.165539891E-2
7.127183390E0,-3.994844258E-1,-7.151031494E-2,-8.396506310E-3
7.132153286E0,-4.505471885E-1,-1.144733429E-1,-8.579682559E-3
7.137123234E0,-4.713352621E-1,-1.583080292E-1,1.689210534E-3
7.142093182E0,-5.322058797E-1,-2.041950226E-1,-4.868122935E-2
7.147063078E0,-5.460659266E-1,-2.176666260E-1,-1.929310337E-2
7.152030265E0,-5.832173228E-1,-2.441205978E-1,-9.025968611E-4
7.157000057E0,-5.949486494E-1,-2.680130005E-1,-6.528481841E-3
7.161969901E0,-6.466054916E-1,-2.857913971E-1,1.166597009E-2
7.166939692E0,-6.394260526E-1,-3.093900681E-1,8.115977049E-3
7.171909536E0,-6.641198397E-1,-3.304414749E-1,-1.554947346E-3
7.176879328E0,-6.573908329E-1,-3.311452866E-1,6.480611861E-3
7.181846567E0,-6.623534560E-1,-3.603725433E-1,-1.654614136E-2
7.186816359E0,-7.084454298E-1,-3.715543747E-1,-1.126862690E-2
7.191786203E0,-7.076519728E-1,-3.695993423E-1,-1.089614257E-2
7.196755994E0,-7.221273184E-1,-3.843116760E-1,7.103338838E-3
7.201725838E0,-7.208365202E-1,-3.799152374E-1,-3.464951366E-2
7.206695630E0,-7.063648701E-1,-3.399448395E-1,-1.674205810E-2
7.211663338E0,-7.560425401E-1,-3.347778320E-1,-3.240817785E-2
7.216633130E0,-7.196943760E-1,-3.391790390E-1,-1.850826293E-2
7.221602974E0,-7.264640927E-1,-3.091316223E-1,-3.803100437E-2
7.226572765E0,-7.142521143E-1,-2.900581360E-1,-5.505013838E-2
7.231542609E0,-7.378278971E-1,-2.676143646E-1,-5.068825930E-2
7.236512401E0,-7.600979209E-1,-2.501420975E-1,-7.229243219E-2
7.241478911E0,-7.490962148E-1,-2.518606186E-1,-7.245384157E-2
7.246448703E0,-7.751486301E-1,-2.250986099E-1,-8.100587130E-2
7.251418546E0,-8.067425489E-1,-2.555894852E-1,-9.309224039E-2
7.256388338E0,-8.333742619E-1,-2.252798080E-1,-6.568001211E-2
7.261358182E0,-8.515749574E-1,-2.297058105E-1,-8.956731111E-2
7.266327974E0,-8.528904319E-1,-1.913537979E-1,-7.873868942E-2
7.271293390E0,-8.730251193E-1,-2.222270966E-1,-9.172748774E-2
7.276263182E0,-9.013764858E-1,-2.006130219E-1,-1.260949373E-1
7.281233026E0,-9.292835593E-1,-1.946296692E-1,-7.574032247E-2
7.286202817E0,-9.437894821E-1,-1.792135239E-1,-9.246574342E-2
7.291172661E0,-9.414922595E-1,-1.603813171E-1,-1.172179282E-1
7.296142453E0,-9.652668834E-1,-1.441020966E-1,-1.050138324E-1
7.301114380E0,-9.648614526E-1,-1.196451187E-1,-1.105957404E-1
7.306084171E0,-9.739245176E-1,-1.156053543E-1,-1.090109348E-1
7.311054015E0,-9.852609634E-1,-1.044921875E-1,-1.275994629E-1
7.316023807E0,-9.820927382E-1,-1.041669846E-1,-9.112687409E-2
7.320993651E0,-9.872102737E-1,-6.466579437E-2,-1.274740249E-1
7.325963442E0,-1.000363946E0,-7.300662994E-2,-1.243128479E-1
7.330929119E0,-1.010064244E0,-7.181358337E-2,-1.458849609E-1
7.335898911E0,-1.011200309E0,-7.895088196E-2,-1.352663040E-1
7.340868755E0,-1.022885919E0,-7.059669495E-2,-1.163337901E-1
7.345838546E0,-1.033258319E0,-8.727169037E-2,-1.438271105E-1
7.350808390E0,-1.025779247E0,-1.299638748E-1,-1.104786992E-1
7.355778182E0,-1.063417792E0,-1.473665237E-1,-1.331052333E-1
7.360744171E0,-1.079270482E0,-1.420660019E-1,-1.269748956E-1
7.365713963E0,-1.077240348E0,-1.534643173E-1,-1.588218808E-1
7.370683807E0,-1.089142799E0,-1.849431992E-1,-1.487969160E-1
7.375653599E0,-1.102159977E0,-1.354103088E-1,-1.576974988E-1
7.380623442E0,-1.113882065E0,-1.338205338E-1,-1.510658413E-1
7.385593234E0,-1.125378132E0,-1.108617783E-1,-1.452617645E-1
7.390560369E0,-1.160366535E0,-9.759712219E-2,-1.621518731E-1
7.395530161E0,-1.200671911E0,-4.166316986E-2,-1.562833488E-1
7.400500005E0,-1.177430987E0,-9.936332703E-3,-1.443915218E-1
7.405469796E0,-1.218208790E0,-2.952957153E-2,-1.337815821E-1
7.410439640E0,-1.256063223E0,-6.913852692E-2,-1.420894861E-1
7.415409432E0,-1.230388880E0,-6.326770782E-2,-1.242467239E-1
7.420377349E0,-1.259147048E0,-7.403850555E-2,-1.396927685E-1
7.425347140E0,-1.271864772E0,-1.025066376E-1,-1.502363682E-1
7.430316984E0,-1.295993209E0,-1.200151443E-1,-1.559358239E-1
7.435286776E0,-1.312224150E0,-1.290102005E-1,-1.355406940E-1
7.440256619E0,-1.320674777E0,-1.331281662E-1,-1.164369509E-1
7.445226411E0,-1.323886752E0,-1.098546982E-1,-1.441094577E-1
7.450193807E0,-1.277874827E0,-1.496744156E-1,-1.024610549E-1
7.455163599E0,-1.305534005E0,-1.831903458E-1,-1.063731760E-1
7.460133442E0,-1.308820009E0,-1.938180923E-1,-9.727650136E-2
7.465103234E0,-1.307017922E0,-2.340230942E-1,-1.335319877E-1
7.470073078E0,-1.289324999E0,-2.215805054E-1,-1.137004793E-1
7.475042869E0,-1.282420874E0,-2.270555496E-1,-1.118533760E-1
7.480007869E0,-1.266860962E0,-2.383804321E-1,-1.042023152E-1
7.484977661E0,-1.279614091E0,-2.222576141E-1,-1.143636703E-1
7.489947505E0,-1.274161458E0,-1.931743622E-1,-1.161893159E-1
7.494917296E0,-1.251894474E0,-1.856889725E-1,-1.430551857E-1
7.499887140E0,-1.245047450E0,-1.782407761E-1,-1.363299638E-1
7.504856932E0,-1.251013637E0,-1.625080109E-1,-1.309118867E-1
7.509825109E0,-1.252073050E0,-1.908388138E-1,-1.254258603E-1
7.514794901E0,-1.264722705E0,-2.058382034E-1,-1.414205730E-1
7.519764744E0,-1.261593223E0,-1.874303818E-1,-1.312263757E-1
7.524734536E0,-1.254723072E0,-1.952791214E-1,-1.458755434E-1
7.529704380E0,-1.276132345E0,-1.602706909E-1,-1.532445997E-1
7.534674171E0,-1.267516255E0,-1.742296219E-1,-1.509262323E-1
7.539643703E0,-1.255200982E0,-1.547918320E-1,-1.224418133E-1
7.544613494E0,-1.246319413E0,-1.485528946E-1,-1.239357144E-1
7.549583338E0,-1.246862411E0,-1.304674149E-1,-1.430753917E-1
7.554553130E0,-1.227029920E0,-9.232044220E-2,-1.548544914E-1
7.559522921E0,-1.246222377E0,-7.820320129E-2,-1.533060819E-1
7.564492765E0,-1.252008438E0,-3.092479706E-2,-1.315706670E-1
7.569460578E0,-1.241990447E0,-5.382537842E-3,-1.491844058E-1
7.574430369E0,-1.218812346E0,3.422451019E-2,-1.403543949E-1
7.579400213E0,-1.208816528E0,6.163692474E-2,-1.682178974E-1
7.584370005E0,-1.212976098E0,8.527851105E-2,-1.650318354E-1
7.589339849E0,-1.197837114E0,1.550779343E-1,-1.381066442E-1
7.594309640E0,-1.193357706E0,1.803665161E-1,-1.482480168E-1
7.599276984E0,-1.200689197E0,2.137765884E-1,-1.591714323E-1
7.604246776E0,-1.186402321E0,2.362422943E-1,-1.507968754E-1
7.609216619E0,-1.209001064E0,2.751579285E-1,-1.601804197E-1
7.614186411E0,-1.177598476E0,2.852878571E-1,-1.634539962E-1
7.619156255E0,-1.196188211E0,2.525930405E-1,-1.392601877E-1
7.624126046E0,-1.179866314E0,3.081007004E-1,-1.426266879E-1
7.629094119E0,-1.167084813E0,2.990255356E-1,-1.353209317E-1
7.634063911E0,-1.214704514E0,2.496767044E-1,-1.148012131E-1
7.639033755E0,-1.203414917E0,2.019605637E-1,-1.385267079E-1
7.644003546E0,-1.220257640E0,1.131191254E-1,-1.384341866E-1
7.648973390E0,-1.246052742E0,8.089160919E-2,-1.096352711E-1
7.653943182E0,-1.220170140E0,2.759647369E-2,-9.654180706E-2
7.658906619E0,-1.224941015E0,-3.352451324E-2,-8.131029457E-2
7.663876307E0,-1.210078716E0,-4.418754578E-2,-9.714840353E-2
7.668846046E0,-1.210291028E0,-4.995918274E-2,-7.016167045E-2
7.673815786E0,-1.187443256E0,-4.850578308E-2,-8.150687069E-2
7.678785526E0,-1.196467638E0,-2.208328247E-2,-9.647658467E-2
7.683755265E0,-1.145562649E0,2.198123932E-2,-1.007644534E-1
7.688722505E0,-1.120980859E0,3.006649017E-2,-8.732249588E-2
7.693692244E0,-1.092628479E0,3.680229187E-3,-7.514571398E-2
7.698661932E0,-1.091675997E0,4.879474640E-2,-1.011346057E-1
7.703631671E0,-1.112989545E0,2.823543549E-2,-8.416973799E-2
7.708601411E0,-1.059013486E0,2.450084686E-2,-8.998136222E-2
7.713571151E0,-1.042178869E0,3.862667084E-2,-1.206145808E-1
7.718541099E0,-1.037130475E0,6.329536438E-3,-1.189954653E-1
7.723510786E0,-1.016476989E0,3.489780426E-2,-1.174158752E-1
7.728480526E0,-1.016006708E0,2.908706665E-4,-1.050328165E-1
7.733450265E0,-9.975162745E-1,-1.025295258E-2,-1.270010769E-1
7.738420005E0,-1.015897393E0,-1.119995117E-2,-1.429257691E-1
7.743389744E0,-1.005386233E0,-4.181194305E-2,-1.322256625E-1
7.748358234E0,-9.851757288E-1,-1.513195038E-2,-1.572018862E-1
7.753327921E0,-9.601222277E-1,-1.122093201E-2,-1.473236084E-1
7.758297661E0,-9.660287499E-1,9.822845459E-4,-1.551194340E-1
7.763267401E0,-9.563127160E-1,-3.204154968E-2,-1.519981921E-1
7.768237140E0,-9.392404556E-1,-6.951427460E-2,-1.486138701E-1
7.773206880E0,-9.184871316E-1,-8.646392822E-2,-1.472990811E-1
7.778173182E0,-9.368198514E-1,-8.543491364E-2,-1.387644261E-1
7.783142869E0,-9.036358595E-1,-7.370471954E-2,-1.276746541E-1
7.788112609E0,-9.428679943E-1,-9.055995941E-2,-1.320058852E-1
7.793082349E0,-9.219946265E-1,-8.468055725E-2,-1.290207356E-1
7.798052088E0,-8.937750459E-1,-5.982017517E-2,-1.280467808E-1
7.803021828E0,-9.044665098E-1,-7.551956177E-2,-1.091648117E-1
7.807990317E0,-8.639159203E-1,-8.396625519E-2,-6.679540873E-2
7.812960005E0,-8.673615456E-1,-6.738281250E-2,-7.087652385E-2
7.817929744E0,-8.454686403E-1,-9.368133545E-2,-8.188627660E-2
7.822899484E0,-8.044139743E-1,-1.054944992E-1,-5.488019809E-2
7.827869224E0,-7.800922990E-1,-9.226036072E-2,-4.113501310E-2
7.832838963E0,-7.808625698E-1,-7.677078247E-2,-5.954817683E-2
7.837817296E0,-7.466972470E-1,-9.583282471E-2,-6.116887927E-2
7.842786984E0,-7.495694757E-1,-1.064291000E-1,-1.171520352E-2
7.847756724E0,-7.260493040E-1,-8.842849731E-2,-3.047391772E-2
7.852726463E0,-7.167678475E-1,-7.295322418E-2,-2.755104378E-2
7.857696203E0,-7.086445093E-1,-4.573535919E-2,-2.487325296E-2
7.862665942E0,-6.943358183E-1,-1.517486572E-2,-1.631665602E-2
7.867647661E0,-6.750606298E-1,-1.930904388E-2,-3.032568470E-2
7.872617349E0,-6.379134655E-1,-9.158134460E-3,1.031259447E-2
7.877587088E0,-6.650835872E-1,8.993148804E-4,4.281759262E-3
7.882556828E0,-6.548928022E-1,1.562690735E-2,1.365117356E-2
7.887526567E0,-6.218020916E-1,-2.558994293E-2,1.575376838E-3
7.892496307E0,-6.352043152E-1,-2.252674103E-2,1.327079907E-2
7.897449328E0,-6.326705813E-1,-5.511951447E-2,1.156869158E-2
7.902419015E0,-6.023866534E-1,-5.774497986E-2,2.174850926E-2
7.907388755E0,-6.052469611E-1,-5.797576904E-2,4.463972896E-2
7.912358494E0,-5.876297355E-1,-4.633522034E-2,3.874269873E-2
7.917328234E0,-5.768163204E-1,-3.835678101E-2,3.987442702E-2
7.922297974E0,-5.585752726E-1,-1.025867462E-2,2.185048535E-2
7.927279953E0,-5.401159525E-1,-2.212524414E-4,2.872501872E-2
7.932249640E0,-5.046920776E-1,1.566505432E-2,4.019707441E-2
7.937219380E0,-4.907091558E-1,2.546405792E-2,2.982402034E-2
7.942189119E0,-4.561041892E-1,5.536270142E-2,3.348571062E-2
7.947158859E0,-4.441734552E-1,5.529975891E-2,7.139445841E-2
7.952128546E0,-3.868694603E-1,7.541084290E-2,2.802129835E-2
7.957082921E0,-3.514675200E-1,7.157325745E-2,5.843102187E-2
7.962052609E0,-3.601081371E-1,7.487106323E-2,5.164682865E-2
7.967022349E0,-3.008186817E-1,4.961299896E-2,4.232416674E-2
7.971992088E0,-2.894305587E-1,4.829597473E-2,3.779203072E-2
7.976961828E0,-2.732565701E-1,-4.211616516E-2,2.471047267E-2
7.981931567E0,-2.429375648E-1,-8.310413361E-2,3.556071594E-2
7.986889380E0,-2.128537446E-1,-1.107101440E-1,3.073977306E-2
7.991859119E0,-2.280923724E-1,-1.416749954E-1,1.758056134E-2
7.996828859E0,-1.920495629E-1,-1.819095612E-1,2.948893234E-2
8.001798599E0,-1.730109900E-1,-1.529436111E-1,-3.330734372E-2
8.006768286E0,-1.648184508E-1,-1.218700409E-1,2.917654812E-3
8.011738026E0,-1.460018307E-1,-1.053323746E-1,-2.050400898E-2
8.016705682E0,-1.038251966E-1,-7.708072662E-2,-1.608059928E-2
8.021675369E0,-9.282232076E-2,-8.590888977E-2,-2.107300237E-2
8.026645161E0,-5.492806807E-2,-7.330417633E-2,-6.364847720E-2
8.031614849E0,-2.426610701E-2,-6.676578522E-2,-6.760559976E-2
8.036584588E0,-2.975091338E-2,-6.742954254E-2,-5.358763039E-2
8.041554328E0,-1.264695451E-2,-9.186458588E-2,-3.578926623E-2
8.046521515E0,-3.367321938E-2,-1.220531464E-1,-7.579739392E-2
8.051491203E0,-5.710944533E-3,-1.151924133E-1,-7.260838896E-2
8.056460942E0,-4.663614929E-2,-1.309804916E-1,-1.953613386E-2
8.061430682E0,-3.885732591E-2,-1.181497574E-1,-4.966058955E-2
8.066400421E0,-2.114482224E-2,-1.494007111E-1,1.312030479E-3
8.071370161E0,-1.865451038E-2,-1.531009674E-1,1.751797833E-2
8.076336411E0,1.987352967E-3,-1.520481110E-1,-2.440318651E-2
8.081306099E0,1.547394693E-2,-1.462831497E-1,-1.727331989E-2
8.086275838E0,-5.256414413E-3,-1.346569061E-1,-1.729972661E-2
8.091245578E0,6.464041770E-2,-1.469163895E-1,1.838826761E-2
8.096215317E0,6.550845504E-2,-1.210994720E-1,2.055115253E-2
8.101185057E0,7.132981718E-2,-1.276025772E-1,2.982465923E-2
8.106152869E0,9.976910055E-2,-1.388339996E-1,3.685688227E-2
8.111122557E0,1.365800351E-1,-1.476325989E-1,6.878091395E-2
8.116092296E0,8.558128774E-2,-1.635236740E-1,3.743933141E-2
8.121062036E0,1.481334865E-1,-1.757612228E-1,4.675318301E-2
8.126031776E0,1.357790828E-1,-2.021951675E-1,7.365600765E-2
8.131001515E0,1.309686154E-1,-2.367677689E-1,6.946217269E-2
8.135999640E0,1.612251699E-1,-2.283468246E-1,6.643556058E-2
8.140969328E0,1.760705113E-1,-2.141036987E-1,8.362151682E-2
8.145939067E0,1.995252967E-1,-1.964712143E-1,7.559987158E-2
8.150908859E0,2.277455926E-1,-1.944723129E-1,7.465310395E-2
8.155878546E0,2.478078902E-1,-1.533498764E-1,1.021255180E-1
8.160848286E0,2.846449614E-1,-1.078729630E-1,3.911276162E-2
8.165788599E0,3.248717785E-1,-6.163406372E-2,7.740613818E-2
8.170758234E0,3.423202038E-1,-7.402706146E-2,6.419742852E-2
8.175727921E0,3.788346648E-1,-8.161640167E-2,1.105270758E-1
8.180697609E0,3.949035108E-1,-8.087062836E-2,5.903728306E-2
8.185667244E0,4.135767519E-1,-8.850669861E-2,8.271414787E-2
8.190636932E0,4.286338687E-1,-6.999492645E-2,9.180148691E-2
8.195602817E0,4.319030046E-1,-6.238079071E-2,8.768644184E-2
8.200572453E0,4.566692412E-1,-4.775428772E-2,1.226979718E-1
8.205542140E0,4.956104755E-1,-5.230426788E-2,1.096291542E-1
8.210511828E0,5.284683108E-1,-3.549194336E-2,9.776319563E-2
8.215481463E0,5.587773919E-1,-7.112979889E-2,9.542158991E-2
8.220451151E0,5.459419489E-1,-7.562160492E-2,1.130996123E-1
8.225417296E0,5.997359753E-1,-9.080791473E-2,1.079041362E-1
8.230386932E0,6.221095920E-1,-1.082782745E-1,1.026486605E-1
8.235356619E0,6.738075614E-1,-1.660127640E-1,1.114960387E-1
8.240326307E0,6.940882206E-1,-1.544055939E-1,8.328266442E-2
8.245295942E0,7.270039916E-1,-1.666679382E-1,7.906375825E-2
8.250265630E0,7.570874095E-1,-1.859779358E-1,7.838983089E-2
8.255232974E0,7.864153981E-1,-1.920547485E-1,7.418520749E-2
8.260202609E0,7.879819274E-1,-2.266044617E-1,6.298601627E-2
8.265172296E0,8.094677925E-1,-2.858200073E-1,6.502754241E-2
8.270141984E0,8.387263417E-1,-2.922792435E-1,6.925835460E-2
8.275111619E0,8.246963024E-1,-3.105649948E-1,4.648232460E-2
8.280081307E0,8.128221035E-1,-2.621822357E-1,2.149729803E-2
8.285050213E0,8.564791679E-1,-2.676448822E-1,4.557147250E-2
8.290019849E0,8.412626982E-1,-2.350502014E-1,1.391645335E-2
8.294989536E0,9.017477036E-1,-1.528244019E-1,2.303621545E-2
8.299959224E0,9.233280420E-1,-1.330347061E-1,3.119856864E-2
8.304928859E0,9.608084559E-1,-1.359462738E-1,2.624966018E-2
8.309898546E0,9.452441931E-1,-7.941818237E-2,1.693968475E-2
8.314868390E0,9.494789243E-1,-6.727790833E-2,4.709072784E-2
8.319838026E0,9.663231969E-1,-3.502368927E-2,1.676054671E-2
8.324807713E0,9.496093988E-1,-3.510665894E-2,1.898265257E-2
8.329777401E0,9.564220309E-1,1.709270477E-2,2.739444934E-2
8.334747036E0,9.272530675E-1,-8.334159851E-3,2.649462596E-2
8.339716724E0,9.444890618E-1,-2.664566040E-3,2.053339034E-3
8.344685421E0,9.163857102E-1,1.957798004E-2,4.351783171E-2
8.349655057E0,9.179216623E-1,2.977466583E-2,6.441532075E-2
8.354624744E0,9.076650143E-1,2.560710907E-2,6.877110898E-2
8.359594432E0,9.093397260E-1,3.648757935E-3,8.265393227E-2
8.364564067E0,8.957873583E-1,-2.766609192E-2,6.439458579E-2
8.369533755E0,8.882554173E-1,-7.892417908E-2,8.444105089E-2
8.374499432E0,8.822414875E-1,-1.250467300E-1,1.007802114E-1
8.379469067E0,9.001191258E-1,-1.648693085E-1,9.205384552E-2
8.384438755E0,9.204791784E-1,-2.032117844E-1,8.225741982E-2
8.389408442E0,8.755456805E-1,-2.483987808E-1,1.021605432E-1
8.394378078E0,9.013999701E-1,-2.671318054E-1,9.590306878E-2
8.399347765E0,8.975236416E-1,-3.023719788E-1,8.240418881E-2
8.404316255E0,9.024802446E-1,-3.183860779E-1,1.226201430E-1
8.409285890E0,9.064966440E-1,-3.390655518E-1,1.373525262E-1
8.414255578E0,9.143779278E-1,-3.406257629E-1,1.247261092E-1
8.419225265E0,9.449944496E-1,-2.828292847E-1,1.559695899E-1
8.424194901E0,9.543364048E-1,-2.683343887E-1,1.487875283E-1
8.429164588E0,9.899116755E-1,-2.421197891E-1,1.651197374E-1
8.434132713E0,1.037032604E0,-2.042627335E-1,1.741908491E-1
8.439102349E0,1.048287749E0,-1.596307755E-1,1.544941664E-1
8.444072036E0,1.085392833E0,-1.201190948E-1,1.562231779E-1
8.449041724E0,1.116169095E0,-1.153888702E-1,1.827682257E-1
8.454011359E0,1.133359909E0,-9.880542755E-2,1.579232961E-1
8.458981046E0,1.157348037E0,-1.358032227E-1,1.639486849E-1
8.463950682E0,1.145318508E0,-1.071557999E-1,1.554909945E-1
8.468920317E0,1.162898540E0,-1.131849289E-1,1.683589667E-1
8.473890005E0,1.182522297E0,-1.096506119E-1,1.880302727E-1
8.478859692E0,1.195833564E0,-1.144485474E-1,1.587916911E-1
8.483829328E0,1.198159337E0,-1.132545471E-1,1.663394570E-1
8.488799015E0,1.193077326E0,-1.013603210E-1,1.477006078E-1
8.493765630E0,1.235301375E0,-1.168613434E-1,1.764322519E-1
8.498735265E0,1.222208738E0,-1.238842010E-1,1.784957349E-1
8.503704953E0,1.231530786E0,-1.308269501E-1,1.675251126E-1
8.508674640E0,1.279607773E0,-1.792430878E-1,1.587871015E-1
8.513644276E0,1.273340940E0,-1.559324265E-1,1.557836235E-1
8.518613963E0,1.297542453E0,-1.767101288E-1,1.433427185E-1
8.523582140E0,1.279471993E0,-1.533069611E-1,1.381263733E-1
8.528551776E0,1.283735991E0,-1.478738785E-1,1.353644282E-1
8.533521463E0,1.310038924E0,-1.376714706E-1,1.134459525E-1
8.538491151E0,1.274975300E0,-1.334228516E-1,1.073381752E-1
8.543460786E0,1.302766442E0,-8.640289307E-2,1.190930083E-1
8.548430474E0,1.327275872E0,-4.919052124E-2,1.130056083E-1
8.553399744E0,1.342929602E0,-1.462078094E-2,1.235710680E-1
8.558369380E0,1.347164989E0,-4.539489746E-4,1.020958498E-1
8.563339067E0,1.331737876E0,1.129817963E-2,9.631077945E-2
8.568308755E0,1.333580494E0,1.591491699E-2,7.177224755E-2
8.573278390E0,1.345370054E0,6.453418732E-2,9.277861565E-2
8.578248078E0,1.335136771E0,7.243824005E-2,8.260466903E-2
8.583212921E0,1.343362808E0,6.729125977E-2,8.347551525E-2
8.588182557E0,1.324643970E0,9.316539764E-2,7.513520122E-2
8.593152244E0,1.327123404E0,1.129302979E-1,7.647491992E-2
8.598121932E0,1.278968811E0,1.361885071E-1,7.314440608E-2
8.603091567E0,1.296153903E0,1.177291870E-1,8.429960907E-2
8.608061255E0,1.217732072E0,1.030445099E-1,4.580321163E-2
8.613031932E0,1.224113703E0,8.375358582E-2,8.842656016E-2
8.618001567E0,1.179079175E0,1.062345505E-1,8.447897434E-2
8.622971255E0,1.185315132E0,1.047945023E-1,7.601155341E-2
8.627940942E0,1.165314674E0,8.080577850E-2,8.668161929E-2
8.632910578E0,1.120586872E0,5.701065063E-2,9.149979055E-2
8.637880265E0,1.142565727E0,9.401321411E-2,9.632509947E-2
8.642845317E0,1.126221299E0,8.321189880E-2,1.214079484E-1
8.647815005E0,1.106682897E0,9.266567230E-2,1.261492521E-1
8.652784640E0,1.109797239E0,4.978847504E-2,1.344362497E-1
8.657754328E0,1.089284420E0,2.863121033E-2,1.569163352E-1
8.662723963E0,1.019081712E0,-3.392124176E-2,1.565441936E-1
8.667693651E0,1.031575680E0,-7.340240479E-2,1.466509998E-1
8.672663494E0,1.024032593E0,-1.042690277E-1,1.498582214E-1
8.677633130E0,1.018954635E0,-1.230001450E-1,1.814171672E-1
8.682602713E0,1.020144701E0,-1.416101456E-1,1.948114038E-1
8.687572349E0,1.042861938E0,-1.280088425E-1,1.735474169E-1
8.692541984E0,1.000244379E0,-1.335439682E-1,1.973972619E-1
8.697511567E0,1.033921838E0,-5.587291718E-2,1.862877458E-1
8.702479484E0,1.060193539E0,-4.654693604E-2,1.975692362E-1
8.707449119E0,1.094485998E0,-1.234531403E-2,2.038884312E-1
8.712418703E0,1.077266216E0,-1.878547668E-2,1.991797388E-1
8.717388338E0,1.099103689E0,3.370285034E-3,1.978491694E-1
8.722357921E0,1.121872425E0,1.823139191E-2,1.676833034E-1
8.727327557E0,1.122739911E0,1.044464111E-2,1.862735897E-1
8.732297296E0,1.128169537E0,3.719520569E-2,1.925014108E-1
8.737266932E0,1.096144438E0,3.053760529E-2,2.044653445E-1
8.742236515E0,1.129561663E0,4.296302795E-2,1.983056962E-1
8.747206151E0,1.117074251E0,-3.967571259E-2,1.681088954E-1
8.752175734E0,1.073530793E0,-5.745029449E-2,1.867378354E-1
8.757145369E0,1.079978585E0,-1.047391891E-1,1.943148077E-1
8.762112140E0,1.062205553E0,-8.744239807E-2,1.743634641E-1
8.767081776E0,1.061009526E0,-1.106472015E-1,1.660249978E-1
8.772051359E0,1.043920875E0,-1.062841415E-1,2.050887793E-1
8.777020994E0,1.065865159E0,-1.007328033E-1,1.640601754E-1
8.781990578E0,1.027852535E0,-9.637355804E-2,1.577556133E-1
8.786960213E0,1.053887367E0,-8.487701416E-2,1.536359787E-1
8.791928026E0,1.051072598E0,-3.783035278E-2,1.529631615E-1
8.796897661E0,1.037231803E0,-1.726436615E-2,1.425181925E-1
8.801867244E0,1.029034972E0,-1.583194733E-2,1.226337925E-1
8.806836880E0,9.991675615E-1,1.065254211E-3,1.336954385E-1
8.811806463E0,9.787948132E-1,5.970001221E-3,1.160652190E-1
8.816776099E0,1.004477382E0,-1.525402069E-2,1.233803034E-1
8.821745890E0,9.939027429E-1,-4.192352295E-3,9.478928894E-2
8.826715526E0,9.924552441E-1,-1.812076569E-2,1.092795581E-1
8.831685109E0,9.681699276E-1,2.153968811E-2,1.009323299E-1
8.836654744E0,9.695743918E-1,2.173137665E-2,8.322647959E-2
8.841624328E0,9.882427454E-1,5.166244507E-2,7.277337462E-2
8.846593963E0,9.669917822E-1,1.003961563E-1,7.292608172E-2
8.851561203E0,9.655982256E-1,1.000652313E-1,6.013847888E-2
8.856530838E0,9.552543163E-1,8.078289032E-2,4.994596541E-2
8.861500421E0,9.182465672E-1,8.665180206E-2,5.177904293E-2
8.866470057E0,9.166894555E-1,6.518554688E-2,3.828010708E-2
8.871439640E0,8.814502954E-1,5.817794800E-2,2.021855861E-2
8.876409276E0,8.744182587E-1,2.394771576E-2,1.194376498E-3
8.881377869E0,8.431997895E-1,2.684879303E-2,1.718429476E-2
8.886347505E0,8.142538071E-1,9.550094604E-3,9.285323322E-4
8.891317088E0,7.839224935E-1,5.061531067E-2,-1.595985144E-2
8.896286724E0,7.501248121E-1,1.531791687E-2,1.718225703E-2
8.901256307E0,7.294163704E-1,1.119899750E-2,2.296743169E-2
8.906225942E0,6.860029101E-1,2.370834351E-3,6.196551025E-3
8.911193911E0,6.665551662E-1,-2.658081055E-2,-1.034776121E-2
8.916163546E0,6.401383877E-1,-5.174446106E-2,2.685100958E-2
8.921133182E0,6.114884019E-1,-6.720829010E-2,4.128578678E-2
8.926102765E0,5.936893821E-1,-9.680843353E-2,3.435891867E-2
8.931072349E0,5.867531300E-1,-1.214275360E-1,5.364297330E-2
8.936041984E0,5.324670076E-1,-9.716796875E-2,3.605441749E-2
8.941035838E0,5.178043842E-1,-8.381175995E-2,2.446970716E-2
8.946005474E0,5.140545964E-1,-7.177829742E-2,4.992568493E-2
8.950975057E0,4.961600900E-1,-3.848457336E-2,4.889747873E-2
8.955944692E0,4.903436005E-1,1.470470428E-2,6.568651646E-2
8.960914276E0,4.607682526E-1,5.437564850E-2,6.921420246E-2
8.965883911E0,4.504178166E-1,4.263114929E-2,6.648196280E-2
8.970852661E0,4.521111846E-1,1.105451584E-1,6.597928703E-2
8.975822296E0,4.821136594E-1,1.137514114E-1,8.551892638E-2
8.980791880E0,4.535102248E-1,1.002960205E-1,7.132404298E-2
8.985761515E0,4.772248864E-1,8.457088470E-2,8.325398713E-2
8.990731099E0,4.517327547E-1,1.909065247E-2,1.066929922E-1
8.995700734E0,4.311766028E-1,-1.141166687E-2,5.484644324E-2
9.000660317E0,4.222762585E-1,-1.671504974E-2,1.076462641E-1
9.005629953E0,4.073047042E-1,-7.067966461E-2,8.147926629E-2
9.010599536E0,3.852508068E-1,-9.926605225E-2,5.286741629E-2
9.015569171E0,3.713287413E-1,-1.418724060E-1,5.881232396E-2
9.020538755E0,3.656518161E-1,-1.710700989E-1,6.436529756E-2
9.025508390E0,3.123508692E-1,-1.845970154E-1,5.185791105E-2
9.030473130E0,3.223491609E-1,-1.778354645E-1,7.845011353E-2
9.035442765E0,2.999433875E-1,-1.497621536E-1,3.463517129E-2
9.040412349E0,3.071800768E-1,-1.053066254E-1,5.173772573E-2
9.045381984E0,2.856373787E-1,-8.261585236E-2,2.805987746E-2
9.050351567E0,2.520285547E-1,-6.962966919E-2,3.884930909E-2
9.055321203E0,2.624349296E-1,-8.883666992E-2,4.398228601E-3
9.060275161E0,2.462733090E-1,-3.782272339E-2,2.238555439E-2
9.065244796E0,2.264001966E-1,-2.644634247E-2,-3.368598968E-2
9.070214380E0,2.171702683E-1,-3.656482697E-2,-2.382597700E-2
9.075184015E0,2.006260455E-1,-7.512664795E-2,-1.303291693E-2
9.080153599E0,1.910035312E-1,-6.587791443E-2,-4.629243165E-2
9.085123234E0,1.775279641E-1,-8.523082733E-2,-3.648269176E-2
9.090091099E0,1.626655459E-1,-9.019279480E-2,-7.061009109E-2
9.095060734E0,1.511413455E-1,-9.038639069E-2,-4.032966495E-2
9.100030317E0,1.665327698E-1,-5.496883392E-2,-8.152900636E-2
9.104999953E0,1.362137496E-1,-4.837894440E-2,-5.931606144E-2
9.109969536E0,1.447682381E-1,1.157951355E-2,-9.531746805E-2
9.114939171E0,1.432779133E-1,1.043128967E-2,-8.816567063E-2
9.119906463E0,1.376430988E-1,5.558490753E-2,-1.236343607E-1
9.124876099E0,1.088787541E-1,9.201240540E-2,-1.194396764E-1
9.129845682E0,9.865584970E-2,1.031579971E-1,-1.302089840E-1
9.134815317E0,5.107324943E-2,1.189212799E-1,-1.703815460E-1
9.139784901E0,4.256454855E-2,1.452016830E-1,-1.562305391E-1
9.144754588E0,8.481699973E-3,1.652755737E-1,-1.564553380E-1
9.149725057E0,-5.651306361E-2,1.518754959E-1,-1.467391253E-1
9.154694692E0,-5.710499734E-2,1.195363998E-1,-1.200650036E-1
9.159664276E0,-1.199477986E-1,9.929180145E-2,-1.704840660E-1
9.164633911E0,-1.549739838E-1,6.016349792E-2,-1.475897282E-1
9.169603494E0,-2.100021839E-1,4.269123077E-2,-1.471980214E-1
9.174573130E0,-2.824648619E-1,-1.269149780E-2,-1.583015621E-1
9.179540786E0,-3.020771146E-1,-3.796577454E-2,-1.583418548E-1
9.184510369E0,-3.368441761E-1,-9.870624542E-2,-1.380924135E-1
9.189479953E0,-3.685574234E-1,-1.174049377E-1,-1.343586594E-1
9.194449484E0,-3.938866258E-1,-1.454887390E-1,-1.207931265E-1
9.199419067E0,-4.603426158E-1,-2.173223495E-1,-1.003003195E-1
9.204388651E0,-4.487548769E-1,-2.113847733E-1,-7.379032671E-2
9.209360838E0,-4.950359166E-1,-2.114629745E-1,-5.948932096E-2
9.214330421E0,-5.025517941E-1,-2.198801041E-1,-8.205007017E-2
9.219300005E0,-5.380968451E-1,-2.258749008E-1,-4.037148133E-2
9.224269536E0,-5.789760947E-1,-2.318429947E-1,-1.456090808E-2
9.229239119E0,-5.798785090E-1,-2.401552200E-1,-3.065380827E-2
9.234208703E0,-5.579483509E-1,-2.650480270E-1,-9.982712567E-3
9.239174328E0,-6.012039185E-1,-2.434272766E-1,-3.824375570E-3
9.244143911E0,-5.890640616E-1,-2.540674210E-1,-1.332511753E-2
9.249113494E0,-5.959280729E-1,-2.622699738E-1,6.753340364E-3
9.254083026E0,-5.824415684E-1,-2.205410004E-1,2.611726522E-4
9.259052609E0,-5.678570271E-1,-2.183847427E-1,5.381166935E-3
9.264022192E0,-5.604714751E-1,-2.340879440E-1,-1.101058722E-2
9.268990630E0,-5.626484752E-1,-2.378120422E-1,4.560396075E-3
9.273960213E0,-5.898109674E-1,-2.391614914E-1,-1.347009838E-2
9.278929796E0,-5.871590972E-1,-2.464694977E-1,-1.130627096E-2
9.283899328E0,-6.047505140E-1,-2.525606155E-1,-2.350443602E-2
9.288868911E0,-6.091595888E-1,-2.811985016E-1,-1.214452833E-2
9.293838494E0,-6.218752265E-1,-3.167533875E-1,-2.581690997E-2
9.298806359E0,-6.609273553E-1,-2.867307663E-1,-2.879173309E-2
9.303775942E0,-6.793672442E-1,-3.258733749E-1,-4.263702780E-2
9.308745526E0,-6.680434942E-1,-3.017673492E-1,-4.668733105E-2
9.313715057E0,-6.817593575E-1,-3.004579544E-1,-5.204656348E-2
9.318684640E0,-6.849096417E-1,-2.778215408E-1,-5.856124684E-2
9.323654224E0,-7.036597729E-1,-2.554140091E-1,-4.004357010E-2
9.328624328E0,-7.173507214E-1,-2.498407364E-1,-6.562263519E-2
9.333593911E0,-7.417231798E-1,-2.087135315E-1,-6.595016271E-2
9.338563442E0,-7.638309598E-1,-2.047967911E-1,-9.231595695E-2
9.343533026E0,-7.430467606E-1,-1.522464752E-1,-8.882079273E-2
9.348502609E0,-7.735102773E-1,-1.868677139E-1,-7.436671853E-2
9.353472140E0,-7.777193785E-1,-1.677885056E-1,-1.028371230E-1
9.358416463E0,-7.878321409E-1,-1.524572372E-1,-9.878455102E-2
9.363386046E0,-8.135340214E-1,-1.372976303E-1,-1.195794269E-1
9.368355630E0,-8.319978714E-1,-1.436805725E-1,-8.790612966E-2
9.373325161E0,-8.183933496E-1,-1.393585205E-1,-9.666186571E-2
9.378294744E0,-8.430647254E-1,-1.244220734E-1,-1.135282665E-1
9.383264328E0,-8.569166064E-1,-1.274604797E-1,-1.311730444E-1
9.388255317E0,-8.651417494E-1,-1.103439331E-1,-1.187339947E-1
9.393224901E0,-8.614005446E-1,-9.220886230E-2,-1.336047202E-1
9.398194484E0,-8.838450909E-1,-6.118869781E-2,-1.219435185E-1
9.403164015E0,-9.135099649E-1,-6.017303467E-2,-1.314460933E-1
9.408133599E0,-9.845461845E-1,-6.632709503E-2,-1.122322604E-1
9.413103182E0,-9.670381546E-1,-1.662635803E-2,-1.320347190E-1
9.418072869E0,-9.866477251E-1,3.262233734E-2,-1.311306655E-1
9.423042453E0,-1.011866927E0,1.730442047E-2,-1.254438758E-1
9.428012036E0,-1.050836086E0,2.468490601E-2,-1.039964706E-1
9.432981567E0,-1.087046266E0,1.297950745E-2,-1.239780411E-1
9.437951151E0,-1.108407617E0,-3.425693512E-2,-1.221070960E-1
9.442920734E0,-1.132730484E0,-6.683063507E-2,-9.057143331E-2
9.447888182E0,-1.149527550E0,-1.145753860E-1,-9.952984005E-2
9.452857765E0,-1.188159704E0,-1.523828506E-1,-8.797657490E-2
9.457827349E0,-1.202214956E0,-1.945943832E-1,-9.288703650E-2
9.462796880E0,-1.240547776E0,-2.304773331E-1,-5.974151939E-2
9.467766463E0,-1.259164572E0,-2.410945892E-1,-7.069456577E-2
9.472736046E0,-1.243767023E0,-2.551383972E-1,-4.125619680E-2
9.477703911E0,-1.289579153E0,-2.547540665E-1,-1.554738730E-2
9.482673494E0,-1.263202071E0,-2.495784760E-1,-7.875114679E-3
9.487643078E0,-1.286409616E0,-2.301473618E-1,5.604919046E-3
9.492612609E0,-1.298004866E0,-2.298145294E-1,1.527446881E-2
9.497582192E0,-1.292275786E0,-1.878595352E-1,2.564791963E-2
9.502551776E0,-1.297977448E0,-1.889686584E-1,5.002909899E-2
9.507520526E0,-1.269643545E0,-1.698036194E-1,3.840868920E-2
9.512490109E0,-1.294710875E0,-1.578989029E-1,7.178024203E-2
9.517459692E0,-1.264359117E0,-1.187171936E-1,8.329663426E-2
9.522429224E0,-1.231622696E0,-9.052848816E-2,6.938080490E-2
9.527398807E0,-1.239178419E0,-6.847953796E-2,8.724831790E-2
9.532368390E0,-1.219143629E0,-8.103752136E-2,4.776469246E-2
9.537336828E0,-1.214582562E0,-8.516788483E-2,6.401865184E-2
9.542306411E0,-1.169495344E0,-1.225061417E-1,4.291647673E-2
9.547275994E0,-1.216085792E0,-1.274499893E-1,5.019503459E-2
9.552245526E0,-1.207416773E0,-1.501455307E-1,4.883105308E-2
9.557215109E0,-1.197424054E0,-1.785707474E-1,5.808870122E-2
9.562184692E0,-1.215813398E0,-1.604166031E-1,5.258123949E-2
9.567152817E0,-1.184082270E0,-1.792287827E-1,2.902451530E-2
9.572122401E0,-1.190601945E0,-1.468086243E-1,9.062867612E-3
9.577091984E0,-1.194561362E0,-1.312761307E-1,3.339871764E-3
9.582061567E0,-1.166287899E0,-1.027927399E-1,2.501558512E-2
9.587031099E0,-1.176259279E0,-8.523845673E-2,-8.126411587E-3
9.592000682E0,-1.148033381E0,-9.513950348E-2,-1.488930732E-2
9.596968494E0,-1.146220803E0,-8.595848083E-2,-3.230728582E-2
9.601938078E0,-1.156303525E0,-3.528499603E-2,-3.294558823E-2
9.606907661E0,-1.171076894E0,-1.710414886E-2,-5.013138056E-2
9.611877192E0,-1.173692822E0,2.127647400E-3,-7.409541309E-2
9.616846776E0,-1.175097704E0,-1.086807251E-2,-8.831672370E-2
9.621816359E0,-1.154951572E0,-4.036808014E-2,-8.089733124E-2
9.626785369E0,-1.164691687E0,-2.092361450E-2,-9.102150053E-2
9.631754953E0,-1.154026508E0,-2.181720734E-2,-8.309705555E-2
9.636724536E0,-1.177867889E0,-3.814029694E-2,-1.177269518E-1
9.641694067E0,-1.190766811E0,-2.343654633E-2,-9.259012341E-2
9.646663651E0,-1.185764194E0,-5.280590057E-2,-1.018853784E-1
9.651633234E0,-1.152374268E0,-8.193588257E-2,-8.486282825E-2
9.656602349E0,-1.147869587E0,-6.807231903E-2,-9.739051759E-2
9.661571932E0,-1.156310081E0,-7.331085205E-2,-8.456742018E-2
9.666541515E0,-1.129098058E0,-1.046380997E-1,-1.023785844E-1
9.671511046E0,-1.178154230E0,-6.325149536E-2,-1.007687449E-1
9.676480630E0,-1.177919865E0,-5.188179016E-2,-9.412708133E-2
9.681450213E0,-1.175335526E0,-6.198883057E-2,-9.805157781E-2
9.686420786E0,-1.176308751E0,-5.181503296E-2,-8.509182185E-2
9.691390317E0,-1.204459906E0,-4.052257538E-2,-8.738163114E-2
9.696359849E0,-1.236711264E0,-5.659389496E-2,-9.880860895E-2
9.701329432E0,-1.221103668E0,-2.382278442E-2,-7.664617896E-2
9.706298963E0,-1.240998983E0,-1.861476898E-2,-9.496022761E-2
9.711268494E0,-1.254217148E0,-1.338577271E-2,-7.248617709E-2
9.716237921E0,-1.281110764E0,-2.834033966E-2,-7.043693960E-2
9.721207453E0,-1.283583760E0,-3.920555115E-3,-4.182104394E-2
9.726176984E0,-1.303152800E0,5.838012695E-2,-3.235226125E-2
9.731146567E0,-1.269803643E0,8.695888519E-2,-3.958702087E-2
9.736116099E0,-1.282536745E0,8.328723907E-2,-1.702610217E-2
9.741085630E0,-1.288654566E0,1.248435974E-1,-8.689146489E-3
9.746072036E0,-1.289284706E0,9.248542786E-2,4.195472226E-3
9.751041567E0,-1.278480291E0,1.068010330E-1,1.945139095E-2
9.756011099E0,-1.287181616E0,9.257030487E-2,3.321520984E-2
9.760980682E0,-1.303373814E0,9.635448456E-2,3.493840620E-2
9.765950213E0,-1.266393185E0,9.068298340E-2,4.958003014E-2
9.770919744E0,-1.285879612E0,4.357337952E-2,6.155541912E-2
9.775868651E0,-1.246486545E0,7.055091858E-2,8.497995883E-2
9.780838182E0,-1.231665850E0,5.936145782E-2,6.654243171E-2
9.785807713E0,-1.213817120E0,6.734371185E-2,7.287675887E-2
9.790777296E0,-1.149354458E0,7.173633575E-2,1.085799560E-1
9.795746828E0,-1.153724670E0,6.067276001E-3,1.078906432E-1
9.800716359E0,-1.145896077E0,-3.204345703E-3,1.177499071E-1
9.805684119E0,-1.091215611E0,-1.710128784E-2,8.670006692E-2
9.810653651E0,-1.087830424E0,5.955696106E-3,9.722944349E-2
9.815623182E0,-1.041273355E0,6.287574768E-3,1.143438369E-1
9.820592765E0,-9.973496199E-1,1.872062683E-3,8.954688907E-2
9.825562296E0,-1.001095057E0,1.650905609E-2,1.193053946E-1
9.830531828E0,-9.820076227E-1,2.531051636E-3,7.952913642E-2
9.835500265E0,-9.378514290E-1,-3.506755829E-2,9.804920107E-2
9.840469796E0,-9.426556826E-1,-4.622268677E-2,9.118603915E-2
9.845439328E0,-9.235593081E-1,-4.421806335E-2,5.449776351E-2
9.850408911E0,-9.245795012E-1,-4.697036743E-2,4.517682642E-2
9.855378442E0,-9.004911184E-1,-5.682277679E-2,5.478461087E-2
9.860347974E0,-8.835985065E-1,-7.015228271E-2,3.680649400E-2
9.865316255E0,-8.620688319E-1,-5.012226105E-2,2.839567512E-2
9.870285786E0,-8.110206127E-1,-1.720142365E-2,2.118327096E-2
9.875255317E0,-8.207650185E-1,-4.868698120E-2,4.405952990E-3
9.880224901E0,-8.161209226E-1,-3.328323364E-4,-8.439674973E-3
9.885194432E0,-8.208868504E-1,-2.483654022E-2,-8.233439177E-3
9.890163963E0,-7.983180285E-1,-2.420139313E-2,-1.621941477E-2
9.895132609E0,-7.958439589E-1,3.757476807E-3,-2.400350384E-2
9.900102140E0,-7.493364215E-1,-2.553081512E-2,-5.532427505E-2
9.905071671E0,-7.340968251E-1,-4.745578766E-2,-3.383664042E-2
9.910041255E0,-7.201188207E-1,-3.475761414E-2,-6.950764358E-2
9.915010786E0,-7.204830647E-1,-3.048515320E-2,-6.648644060E-2
9.919980317E0,-7.195775509E-1,-4.050540924E-2,-8.120042086E-2
9.924949588E0,-6.877971292E-1,-5.995082855E-2,-6.221853197E-2
9.929919171E0,-6.775561571E-1,-4.954242706E-2,-7.050303370E-2
9.934888651E0,-6.530691385E-1,-2.259445190E-2,-7.501918823E-2
9.939858234E0,-6.489770412E-1,-3.745174408E-2,-8.988046646E-2
